freq_correct,sub_experiment_index,subject,date,timestamp,trial,stimulus,response,is_practice_trial,is_correct,response_time,BLACKOUT_TIME,DELAY_AFTER_REWARD,x,y,undesired_touch,screen_touched,cell_touched,button_touched,SDP_SINGLE_STIMULUS_TIME,SDP_PROBE_TRIAL_INTERVAL,SDP_LONG_A_TIME,SDP_SHORT_A_TIME,SDP_B_TIME,SDP_INTER_STIMULUS_TIME,SDP_DELAY
0,2,2,2019-11-14,14:57:59:582,1,AB,left,na,True,7.862,3000,1000,88,630,False,PS,LB,R1,na,na,na,na,na,na,na
0,2,2,2019-11-14,14:57:59:584,1,AB,left,na,None,7.863,3000,1000,88,630,True,PS,LB,None,na,na,na,na,na,na,na
0,2,2,2019-11-14,14:58:06:87,2,AA,right,na,True,0.594,3000,1000,1178,205,False,PS,RT,R2,na,na,na,na,na,na,na
0,2,2,2019-11-14,14:58:06:88,2,AA,right,na,None,0.595,3000,1000,1178,205,True,PS,RT,None,na,na,na,na,na,na,na
0,2,2,2019-11-14,14:58:11:463,3,BA,left,na,False,0.552,3000,1000,90,650,False,PS,LB,R1,na,na,na,na,na,na,na
0,2,2,2019-11-14,14:58:11:463,3,BA,left,na,None,0.553,3000,1000,90,650,True,PS,LB,None,na,na,na,na,na,na,na
0,2,2,2019-11-14,14:58:18:1000,4,BA,right,na,True,0.782,3000,1000,1209,201,False,PS,RT,R2,na,na,na,na,na,na,na
0,2,2,2019-11-14,14:58:19:1,4,BA,right,na,None,0.783,3000,1000,1209,201,True,PS,RT,None,na,na,na,na,na,na,na
0,2,2,2019-11-14,14:58:25:226,5,BB,left,na,False,1.509,3000,1000,80,663,False,PS,LB,R1,na,na,na,na,na,na,na
0,2,2,2019-11-14,14:58:25:227,5,BB,left,na,None,1.509,3000,1000,80,663,True,PS,LB,None,na,na,na,na,na,na,na
0,2,2,2019-11-14,14:58:32:470,6,BB,right,na,True,0.574,3000,1000,1211,192,False,PS,RT,R2,na,na,na,na,na,na,na
0,2,2,2019-11-14,14:58:32:471,6,BB,right,na,None,0.575,3000,1000,1211,192,True,PS,RT,None,na,na,na,na,na,na,na
0,2,2,2019-11-14,14:58:40:214,7,AB,left,na,True,2.977,3000,1000,84,667,False,PS,LB,R1,na,na,na,na,na,na,na
0,2,2,2019-11-14,14:58:40:214,7,AB,left,na,None,2.978,3000,1000,84,667,True,PS,LB,None,na,na,na,na,na,na,na
0,2,2,2019-11-14,14:58:46:870,8,AA,left,na,False,1.568,3000,1000,83,665,False,PS,LB,R1,na,na,na,na,na,na,na
0,2,2,2019-11-14,14:58:46:872,8,AA,left,na,None,1.57,3000,1000,83,665,True,PS,LB,None,na,na,na,na,na,na,na
0,2,2,2019-11-14,14:58:54:138,9,AA,right,na,True,0.35,3000,1000,1177,167,False,PS,RT,R2,na,na,na,na,na,na,na
0,2,2,2019-11-14,14:58:54:139,9,AA,right,na,None,0.351,3000,1000,1177,167,True,PS,RT,None,na,na,na,na,na,na,na
0,2,2,2019-11-14,14:58:59:329,10,AA,right,na,True,0.301,3000,1000,1152,171,False,PS,RT,R2,na,na,na,na,na,na,na
0,2,2,2019-11-14,14:58:59:330,10,AA,right,na,None,0.302,3000,1000,1152,171,True,PS,RT,None,na,na,na,na,na,na,na
0,2,2,2019-11-14,14:59:05:868,11,AB,right,na,False,1.716,3000,1000,1186,174,False,PS,RT,R2,na,na,na,na,na,na,na
0,2,2,2019-11-14,14:59:05:869,11,AB,right,na,None,1.717,3000,1000,1186,174,True,PS,RT,None,na,na,na,na,na,na,na
0,2,2,2019-11-14,14:59:09:368,11,AB,right,na,None,5.216,3000,1000,719,634,True,PS,MB,None,na,na,na,na,na,na,na
0,2,2,2019-11-14,14:59:13:480,12,AB,left,na,True,0.42,3000,1000,98,642,False,PS,LB,R1,na,na,na,na,na,na,na
0,2,2,2019-11-14,14:59:13:482,12,AB,left,na,None,0.421,3000,1000,98,642,True,PS,LB,None,na,na,na,na,na,na,na
0,2,2,2019-11-14,14:59:19:360,13,AB,left,na,True,0.559,3000,1000,196,616,False,PS,LB,R1,na,na,na,na,na,na,na
0,2,2,2019-11-14,14:59:19:361,13,AB,left,na,None,0.56,3000,1000,196,616,True,PS,LB,None,na,na,na,na,na,na,na
0,2,2,2019-11-14,14:59:25:130,14,AB,left,na,None,0.924,3000,1000,252,556,True,PS,LB,NB,na,na,na,na,na,na,na
0,2,2,2019-11-14,14:59:25:468,14,AB,left,na,True,1.262,3000,1000,208,608,False,PS,LB,R1,na,na,na,na,na,na,na
0,2,2,2019-11-14,14:59:25:469,14,AB,left,na,None,1.263,3000,1000,208,608,True,PS,LB,None,na,na,na,na,na,na,na
0,2,2,2019-11-14,14:59:31:210,15,AB,left,na,True,0.726,3000,1000,158,660,False,PS,LB,R1,na,na,na,na,na,na,na
0,2,2,2019-11-14,14:59:31:211,15,AB,left,na,None,0.727,3000,1000,158,660,True,PS,LB,None,na,na,na,na,na,na,na
0,2,2,2019-11-14,14:59:37:484,16,BB,right,na,True,1.425,3000,1000,1098,155,False,PS,RT,R2,na,na,na,na,na,na,na
0,2,2,2019-11-14,14:59:37:485,16,BB,right,na,None,1.426,3000,1000,1098,155,True,PS,RT,None,na,na,na,na,na,na,na
0,2,2,2019-11-14,14:59:44:260,17,BA,right,na,True,2.019,3000,1000,1079,163,False,PS,RT,R2,na,na,na,na,na,na,na
0,2,2,2019-11-14,14:59:44:261,17,BA,right,na,None,2.019,3000,1000,1079,163,True,PS,RT,None,na,na,na,na,na,na,na
0,2,2,2019-11-14,14:59:50:831,18,BA,right,na,True,1.655,3000,1000,1095,168,False,PS,RT,R2,na,na,na,na,na,na,na
0,2,2,2019-11-14,14:59:50:832,18,BA,right,na,None,1.656,3000,1000,1095,168,True,PS,RT,None,na,na,na,na,na,na,na
0,2,2,2019-11-14,14:59:56:6,19,AB,left,na,True,0.44,3000,1000,181,612,False,PS,LB,R1,na,na,na,na,na,na,na
0,2,2,2019-11-14,14:59:56:6,19,AB,left,na,None,0.44,3000,1000,181,612,True,PS,LB,None,na,na,na,na,na,na,na
0,2,2,2019-11-14,14:59:57:475,19,AB,left,na,None,1.909,3000,1000,718,608,True,PS,MB,None,na,na,na,na,na,na,na
0.8,2,2,2019-11-14,15:00:01:700,20,BB,right,na,True,0.322,3000,1000,1188,126,False,PS,RT,R2,na,na,na,na,na,na,na
0.8,2,2,2019-11-14,15:00:01:701,20,BB,right,na,None,0.323,3000,1000,1188,126,True,PS,RT,None,na,na,na,na,na,na,na
