freq_correct,sub_experiment_index,subject,date,timestamp,trial,stimulus,response,is_practice_trial,is_correct,response_time,BLACKOUT_TIME,DELAY_AFTER_REWARD,x,y,undesired_touch,screen_touched,cell_touched,button_touched,SDP_SINGLE_STIMULUS_TIME,SDP_PROBE_TRIAL_INTERVAL,SDP_LONG_A_TIME,SDP_SHORT_A_TIME,SDP_B_TIME,SDP_INTER_STIMULUS_TIME,SDP_DELAY
0,4,1,2019-11-14,13:43:32:297,1,A,right,na,True,0.109,3000,1000,833,391,False,PS,MM,R2,1500,10,4000,1000,2000,300,500
0,4,1,2019-11-14,13:43:32:475,1,A,right,na,None,0.287,3000,1000,833,390,True,PS,MM,R2,1500,10,4000,1000,2000,300,500
0,4,1,2019-11-14,13:43:33:48,1,A,right,na,None,0.86,3000,1000,575,657,True,PS,MB,NB,1500,10,4000,1000,2000,300,500
0,4,1,2019-11-14,13:43:33:464,1,A,right,na,None,1.276,3000,1000,577,691,True,PS,MB,None,1500,10,4000,1000,2000,300,500
0,4,1,2019-11-14,13:43:34:336,2,A,right,na,None,2.148,3000,1000,822,407,True,PS,MM,R2,1500,10,4000,1000,2000,300,500
0,4,1,2019-11-14,13:43:34:753,2,A,right,na,None,2.565,3000,1000,828,389,True,PS,MM,R2,1500,10,4000,1000,2000,300,500
0,4,1,2019-11-14,13:43:34:964,2,A,right,na,None,2.776,3000,1000,841,404,True,PS,MM,R2,1500,10,4000,1000,2000,300,500
0,4,1,2019-11-14,13:43:35:168,2,A,right,na,None,2.98,3000,1000,839,394,True,PS,MM,R2,1500,10,4000,1000,2000,300,500
0,4,1,2019-11-14,13:43:35:387,2,A,right,na,None,3.199,3000,1000,836,390,True,PS,MM,R2,1500,10,4000,1000,2000,300,500
0,4,1,2019-11-14,13:43:35:599,2,A,right,na,None,3.411,3000,1000,818,378,True,PS,MM,R2,1500,10,4000,1000,2000,300,500
0,4,1,2019-11-14,13:43:35:796,2,A,right,na,True,0.062,3000,1000,831,392,False,PS,MM,R2,1500,10,4000,1000,2000,300,500
0,4,1,2019-11-14,13:43:35:999,2,A,right,na,None,0.265,3000,1000,831,394,True,PS,MM,R2,1500,10,4000,1000,2000,300,500
0,4,1,2019-11-14,13:43:36:597,2,A,right,na,None,0.863,3000,1000,576,659,True,PS,MB,NB,1500,10,4000,1000,2000,300,500
0,4,1,2019-11-14,13:43:37:578,3,A,right,na,None,1.844,3000,1000,837,403,True,PS,MM,R2,1500,10,4000,1000,2000,300,500
0,4,1,2019-11-14,13:43:37:790,3,A,right,na,None,2.056,3000,1000,848,401,True,PS,MM,R2,1500,10,4000,1000,2000,300,500
0,4,1,2019-11-14,13:43:38:9,3,A,right,na,None,2.275,3000,1000,843,396,True,PS,MM,R2,1500,10,4000,1000,2000,300,500
0,4,1,2019-11-14,13:43:38:214,3,A,right,na,None,2.48,3000,1000,839,387,True,PS,MM,R2,1500,10,4000,1000,2000,300,500
0,4,1,2019-11-14,13:43:38:433,3,A,right,na,None,2.699,3000,1000,834,375,True,PS,MM,R2,1500,10,4000,1000,2000,300,500
0,4,1,2019-11-14,13:43:38:638,3,A,right,na,None,2.904,3000,1000,840,380,True,PS,MM,R2,1500,10,4000,1000,2000,300,500
0,4,1,2019-11-14,13:43:38:849,3,A,right,na,None,3.115,3000,1000,842,378,True,PS,MM,R2,1500,10,4000,1000,2000,300,500
0,4,1,2019-11-14,13:43:39:62,3,A,right,na,True,0.077,3000,1000,852,382,False,PS,MM,R2,1500,10,4000,1000,2000,300,500
0,4,1,2019-11-14,13:43:39:249,3,A,right,na,None,0.264,3000,1000,839,373,True,PS,MM,R2,1500,10,4000,1000,2000,300,500
0,4,1,2019-11-14,13:43:39:814,3,A,right,na,None,0.83,3000,1000,605,660,True,PS,MB,NB,1500,10,4000,1000,2000,300,500
0,4,1,2019-11-14,13:43:41:198,4,A,right,na,None,2.213,3000,1000,827,378,True,PS,MM,R2,1500,10,4000,1000,2000,300,500
0,4,1,2019-11-14,13:43:41:385,4,A,right,na,None,2.401,3000,1000,835,387,True,PS,MM,R2,1500,10,4000,1000,2000,300,500
0,4,1,2019-11-14,13:43:41:581,4,A,right,na,None,2.596,3000,1000,846,387,True,PS,MM,R2,1500,10,4000,1000,2000,300,500
0,4,1,2019-11-14,13:43:41:777,4,A,right,na,None,2.793,3000,1000,857,374,True,PS,RM,R2,1500,10,4000,1000,2000,300,500
0,4,1,2019-11-14,13:43:41:982,4,A,right,na,None,2.997,3000,1000,866,379,True,PS,RM,R2,1500,10,4000,1000,2000,300,500
0,4,1,2019-11-14,13:43:42:170,4,A,right,na,None,3.185,3000,1000,858,378,True,PS,RM,R2,1500,10,4000,1000,2000,300,500
0,4,1,2019-11-14,13:43:42:375,4,A,right,na,None,3.39,3000,1000,852,375,True,PS,MM,R2,1500,10,4000,1000,2000,300,500
0,4,1,2019-11-14,13:43:42:554,4,A,right,na,True,0.079,3000,1000,848,371,False,PS,MM,R2,1500,10,4000,1000,2000,300,500
0,4,1,2019-11-14,13:43:42:741,4,A,right,na,None,0.266,3000,1000,853,379,True,PS,MM,R2,1500,10,4000,1000,2000,300,500
0,4,1,2019-11-14,13:43:43:267,4,A,right,na,None,0.792,3000,1000,592,645,True,PS,MB,NB,1500,10,4000,1000,2000,300,500
0,4,1,2019-11-14,13:43:44:272,5,A,right,na,None,1.797,3000,1000,863,387,True,PS,RM,R2,1500,10,4000,1000,2000,300,500
0,4,1,2019-11-14,13:43:44:478,5,A,right,na,None,2.002,3000,1000,872,393,True,PS,RM,R2,1500,10,4000,1000,2000,300,500
0,4,1,2019-11-14,13:43:44:658,5,A,right,na,None,2.183,3000,1000,859,387,True,PS,RM,R2,1500,10,4000,1000,2000,300,500
0,4,1,2019-11-14,13:43:44:847,5,A,right,na,None,2.372,3000,1000,849,381,True,PS,MM,R2,1500,10,4000,1000,2000,300,500
0,4,1,2019-11-14,13:43:45:64,5,A,right,na,None,2.589,3000,1000,850,390,True,PS,MM,R2,1500,10,4000,1000,2000,300,500
0,4,1,2019-11-14,13:43:45:246,5,A,right,na,None,2.77,3000,1000,838,378,True,PS,MM,R2,1500,10,4000,1000,2000,300,500
0,4,1,2019-11-14,13:43:45:450,5,A,right,na,None,2.974,3000,1000,837,381,True,PS,MM,R2,1500,10,4000,1000,2000,300,500
0,4,1,2019-11-14,13:43:45:624,5,A,right,na,None,3.149,3000,1000,834,376,True,PS,MM,R2,1500,10,4000,1000,2000,300,500
0,4,1,2019-11-14,13:43:45:812,5,A,right,na,True,0.148,3000,1000,850,385,False,PS,MM,R2,1500,10,4000,1000,2000,300,500
0,4,1,2019-11-14,13:43:45:947,5,A,right,na,None,0.283,3000,1000,835,369,True,PS,MM,R2,1500,10,4000,1000,2000,300,500
0,4,1,2019-11-14,13:43:46:477,5,A,right,na,None,0.813,3000,1000,542,655,True,PS,MB,None,1500,10,4000,1000,2000,300,500
0,4,1,2019-11-14,13:43:47:790,6,B,left,na,None,2.126,3000,1000,411,427,True,PS,LM,R1,1500,10,4000,1000,2000,300,500
0,4,1,2019-11-14,13:43:48:41,6,B,left,na,None,2.377,3000,1000,419,447,True,PS,LM,R1,1500,10,4000,1000,2000,300,500
0,4,1,2019-11-14,13:43:48:284,6,B,left,na,None,2.62,3000,1000,432,461,True,PS,MM,R1,1500,10,4000,1000,2000,300,500
0,4,1,2019-11-14,13:43:48:503,6,B,left,na,None,2.839,3000,1000,454,456,True,PS,MM,R1,1500,10,4000,1000,2000,300,500
0,4,1,2019-11-14,13:43:48:761,6,B,left,na,None,3.097,3000,1000,430,434,True,PS,MM,R1,1500,10,4000,1000,2000,300,500
0,4,1,2019-11-14,13:43:49:8,6,B,left,na,True,0.095,3000,1000,434,429,False,PS,MM,R1,1500,10,4000,1000,2000,300,500
0,4,1,2019-11-14,13:43:49:232,6,B,left,na,None,0.32,3000,1000,415,412,True,PS,LM,R1,1500,10,4000,1000,2000,300,500
0,4,1,2019-11-14,13:43:49:931,6,B,left,na,None,1.019,3000,1000,630,659,True,PS,MB,NB,1500,10,4000,1000,2000,300,500
0,4,1,2019-11-14,13:43:50:834,7,B,left,na,None,1.922,3000,1000,400,337,True,PS,LM,R1,1500,10,4000,1000,2000,300,500
0,4,1,2019-11-14,13:43:51:61,7,B,left,na,None,2.149,3000,1000,415,384,True,PS,LM,R1,1500,10,4000,1000,2000,300,500
0,4,1,2019-11-14,13:43:51:219,7,B,left,na,None,2.306,3000,1000,437,389,True,PS,MM,R1,1500,10,4000,1000,2000,300,500
0,4,1,2019-11-14,13:43:51:423,7,B,left,na,None,2.51,3000,1000,415,393,True,PS,LM,R1,1500,10,4000,1000,2000,300,500
0,4,1,2019-11-14,13:43:51:620,7,B,left,na,None,2.707,3000,1000,448,430,True,PS,MM,R1,1500,10,4000,1000,2000,300,500
0,4,1,2019-11-14,13:43:51:846,7,B,left,na,None,2.934,3000,1000,435,450,True,PS,MM,R1,1500,10,4000,1000,2000,300,500
0,4,1,2019-11-14,13:43:52:11,7,B,left,na,None,3.098,3000,1000,450,461,True,PS,MM,R1,1500,10,4000,1000,2000,300,500
0,4,1,2019-11-14,13:43:52:216,7,B,left,na,None,3.303,3000,1000,446,466,True,PS,MM,R1,1500,10,4000,1000,2000,300,500
0,4,1,2019-11-14,13:43:52:421,7,B,left,na,True,0.103,3000,1000,445,475,False,PS,MM,R1,1500,10,4000,1000,2000,300,500
0,4,1,2019-11-14,13:43:52:631,7,B,left,na,None,0.313,3000,1000,427,438,True,PS,MM,R1,1500,10,4000,1000,2000,300,500
0,4,1,2019-11-14,13:43:53:157,7,B,left,na,None,0.839,3000,1000,646,664,True,PS,MB,NB,1500,10,4000,1000,2000,300,500
0,4,1,2019-11-14,13:43:53:408,7,B,left,na,None,1.09,3000,1000,624,660,True,PS,MB,NB,1500,10,4000,1000,2000,300,500
0,4,1,2019-11-14,13:43:53:880,8,B,left,na,None,1.562,3000,1000,609,638,True,PS,MB,NB,1500,10,4000,1000,2000,300,500
0,4,1,2019-11-14,13:43:54:179,8,B,left,na,None,1.861,3000,1000,385,410,True,PS,LM,R1,1500,10,4000,1000,2000,300,500
0,4,1,2019-11-14,13:43:54:391,8,B,left,na,None,2.073,3000,1000,403,421,True,PS,LM,R1,1500,10,4000,1000,2000,300,500
0,4,1,2019-11-14,13:43:54:587,8,B,left,na,None,2.269,3000,1000,404,409,True,PS,LM,R1,1500,10,4000,1000,2000,300,500
0,4,1,2019-11-14,13:43:54:807,8,B,left,na,None,2.489,3000,1000,410,413,True,PS,LM,R1,1500,10,4000,1000,2000,300,500
0,4,1,2019-11-14,13:43:54:986,8,B,left,na,None,2.668,3000,1000,401,394,True,PS,LM,R1,1500,10,4000,1000,2000,300,500
0,4,1,2019-11-14,13:43:55:197,8,B,left,na,None,2.879,3000,1000,404,402,True,PS,LM,R1,1500,10,4000,1000,2000,300,500
0,4,1,2019-11-14,13:43:55:371,8,B,left,na,None,3.053,3000,1000,433,389,True,PS,MM,R1,1500,10,4000,1000,2000,300,500
0,4,1,2019-11-14,13:43:55:560,8,B,left,na,None,3.242,3000,1000,410,398,True,PS,LM,R1,1500,10,4000,1000,2000,300,500
0,4,1,2019-11-14,13:43:55:717,8,B,left,na,True,0.087,3000,1000,416,405,False,PS,LM,R1,1500,10,4000,1000,2000,300,500
0,4,1,2019-11-14,13:43:55:841,8,B,left,na,None,0.211,3000,1000,413,390,True,PS,LM,R1,1500,10,4000,1000,2000,300,500
0,4,1,2019-11-14,13:43:56:343,8,B,left,na,None,0.712,3000,1000,663,667,True,PS,MB,NB,1500,10,4000,1000,2000,300,500
0,4,1,2019-11-14,13:43:56:611,8,B,left,na,None,0.98,3000,1000,653,671,True,PS,MB,NB,1500,10,4000,1000,2000,300,500
0,4,1,2019-11-14,13:43:56:845,8,B,left,na,None,1.214,3000,1000,647,682,True,PS,MB,None,1500,10,4000,1000,2000,300,500
0,4,1,2019-11-14,13:43:57:632,9,B,left,na,None,2.001,3000,1000,356,432,True,PS,LM,R1,1500,10,4000,1000,2000,300,500
0,4,1,2019-11-14,13:43:57:851,9,B,left,na,None,2.22,3000,1000,379,434,True,PS,LM,R1,1500,10,4000,1000,2000,300,500
0,4,1,2019-11-14,13:43:58:55,9,B,left,na,None,2.424,3000,1000,388,425,True,PS,LM,R1,1500,10,4000,1000,2000,300,500
0,4,1,2019-11-14,13:43:58:283,9,B,left,na,None,2.652,3000,1000,390,417,True,PS,LM,R1,1500,10,4000,1000,2000,300,500
0,4,1,2019-11-14,13:43:58:495,9,B,left,na,None,2.864,3000,1000,387,420,True,PS,LM,R1,1500,10,4000,1000,2000,300,500
0,4,1,2019-11-14,13:43:58:682,9,B,left,na,None,3.052,3000,1000,367,400,True,PS,LM,R1,1500,10,4000,1000,2000,300,500
0,4,1,2019-11-14,13:43:58:887,9,B,left,na,None,3.257,3000,1000,364,413,True,PS,LM,R1,1500,10,4000,1000,2000,300,500
0,4,1,2019-11-14,13:43:59:44,9,B,left,na,None,3.413,3000,1000,370,422,True,PS,LM,R1,1500,10,4000,1000,2000,300,500
0,4,1,2019-11-14,13:43:59:343,9,B,left,na,True,0.25,3000,1000,398,432,False,PS,LM,R1,1500,10,4000,1000,2000,300,500
0,4,1,2019-11-14,13:43:59:576,9,B,left,na,None,0.484,3000,1000,404,442,True,PS,LM,R1,1500,10,4000,1000,2000,300,500
0,4,1,2019-11-14,13:44:00:87,9,B,left,na,None,0.995,3000,1000,655,686,True,PS,MB,None,1500,10,4000,1000,2000,300,500
0,4,1,2019-11-14,13:44:00:236,9,B,left,na,None,1.144,3000,1000,644,670,True,PS,MB,NB,1500,10,4000,1000,2000,300,500
0,4,1,2019-11-14,13:44:00:707,10,AB,left,na,None,1.615,3000,1000,617,643,True,PS,MB,NB,1500,10,4000,1000,2000,300,500
0,4,1,2019-11-14,13:44:01:250,10,AB,left,na,None,2.157,3000,1000,814,490,True,PS,MB,None,1500,10,4000,1000,2000,300,500
0,4,1,2019-11-14,13:44:01:444,10,AB,right,na,None,2.352,3000,1000,790,439,True,PS,MM,R2,1500,10,4000,1000,2000,300,500
0,4,1,2019-11-14,13:44:01:650,10,AB,right,na,None,2.557,3000,1000,797,437,True,PS,MM,R2,1500,10,4000,1000,2000,300,500
0,4,1,2019-11-14,13:44:01:846,10,AB,right,na,None,2.754,3000,1000,802,429,True,PS,MM,R2,1500,10,4000,1000,2000,300,500
0,4,1,2019-11-14,13:44:02:42,10,AB,right,na,None,2.95,3000,1000,810,438,True,PS,MM,R2,1500,10,4000,1000,2000,300,500
0,4,1,2019-11-14,13:44:02:246,10,AB,right,na,None,3.154,3000,1000,810,422,True,PS,MM,R2,1500,10,4000,1000,2000,300,500
0,4,1,2019-11-14,13:44:02:434,10,AB,right,na,None,3.342,3000,1000,796,399,True,PS,MM,R2,1500,10,4000,1000,2000,300,500
0,4,1,2019-11-14,13:44:02:646,10,AB,right,na,None,3.554,3000,1000,809,412,True,PS,MM,R2,1500,10,4000,1000,2000,300,500
0,4,1,2019-11-14,13:44:02:842,10,AB,right,na,None,3.75,3000,1000,815,409,True,PS,MM,R2,1500,10,4000,1000,2000,300,500
0,4,1,2019-11-14,13:44:03:38,10,AB,right,na,None,3.945,3000,1000,835,426,True,PS,MM,R2,1500,10,4000,1000,2000,300,500
0,4,1,2019-11-14,13:44:03:228,10,AB,right,na,None,4.136,3000,1000,834,433,True,PS,MM,R2,1500,10,4000,1000,2000,300,500
0,4,1,2019-11-14,13:44:03:431,10,AB,right,na,None,4.338,3000,1000,847,444,True,PS,MM,R2,1500,10,4000,1000,2000,300,500
0,4,1,2019-11-14,13:44:03:619,10,AB,right,na,None,4.527,3000,1000,851,441,True,PS,MM,R2,1500,10,4000,1000,2000,300,500
0,4,1,2019-11-14,13:44:03:824,10,AB,right,na,None,4.732,3000,1000,850,435,True,PS,MM,R2,1500,10,4000,1000,2000,300,500
0,4,1,2019-11-14,13:44:04:28,10,AB,right,na,None,4.936,3000,1000,814,408,True,PS,MM,R2,1500,10,4000,1000,2000,300,500
0,4,1,2019-11-14,13:44:04:201,10,AB,right,na,None,5.109,3000,1000,814,417,True,PS,MM,R2,1500,10,4000,1000,2000,300,500
0,4,1,2019-11-14,13:44:04:413,10,AB,right,na,None,5.321,3000,1000,829,423,True,PS,MM,R2,1500,10,4000,1000,2000,300,500
0,4,1,2019-11-14,13:44:04:608,10,AB,right,na,None,5.516,3000,1000,837,430,True,PS,MM,R2,1500,10,4000,1000,2000,300,500
0,4,1,2019-11-14,13:44:04:858,10,AB,right,na,None,5.766,3000,1000,836,418,True,PS,MM,R2,1500,10,4000,1000,2000,300,500
0,4,1,2019-11-14,13:44:05:94,10,AB,right,na,None,6.002,3000,1000,805,395,True,PS,MM,R2,1500,10,4000,1000,2000,300,500
0,4,1,2019-11-14,13:44:05:565,10,AB,right,na,None,6.473,3000,1000,832,432,True,PS,MM,R2,1500,10,4000,1000,2000,300,500
0,4,1,2019-11-14,13:44:05:770,10,AB,right,na,None,6.678,3000,1000,827,431,True,PS,MM,R2,1500,10,4000,1000,2000,300,500
0,4,1,2019-11-14,13:44:08:469,10,AB,left,na,None,1.204,3000,1000,438,439,False,PS,MM,R1,1500,10,4000,1000,2000,300,500
0,4,1,2019-11-14,13:44:10:9,11,A,right,na,None,2.743,3000,1000,821,468,True,PS,MM,R2,1500,10,4000,1000,2000,300,500
0,4,1,2019-11-14,13:44:10:211,11,A,right,na,None,2.946,3000,1000,834,456,True,PS,MM,R2,1500,10,4000,1000,2000,300,500
0,4,1,2019-11-14,13:44:10:401,11,A,right,na,None,3.135,3000,1000,821,439,True,PS,MM,R2,1500,10,4000,1000,2000,300,500
0,4,1,2019-11-14,13:44:10:582,11,A,right,na,None,3.316,3000,1000,812,426,True,PS,MM,R2,1500,10,4000,1000,2000,300,500
0,4,1,2019-11-14,13:44:10:777,11,A,right,na,None,3.511,3000,1000,815,435,True,PS,MM,R2,1500,10,4000,1000,2000,300,500
0,4,1,2019-11-14,13:44:10:958,11,A,right,na,None,3.692,3000,1000,795,426,True,PS,MM,R2,1500,10,4000,1000,2000,300,500
0,4,1,2019-11-14,13:44:11:139,11,A,right,na,None,3.873,3000,1000,797,422,True,PS,MM,R2,1500,10,4000,1000,2000,300,500
0,4,1,2019-11-14,13:44:11:327,11,A,right,na,True,0.114,3000,1000,793,424,False,PS,MM,R2,1500,10,4000,1000,2000,300,500
0,4,1,2019-11-14,13:44:11:506,11,A,right,na,None,0.294,3000,1000,810,424,True,PS,MM,R2,1500,10,4000,1000,2000,300,500
0,4,1,2019-11-14,13:44:11:899,11,A,right,na,None,0.687,3000,1000,621,644,True,PS,MB,NB,1500,10,4000,1000,2000,300,500
0,4,1,2019-11-14,13:44:12:173,11,A,right,na,None,0.961,3000,1000,607,650,True,PS,MB,NB,1500,10,4000,1000,2000,300,500
0,4,1,2019-11-14,13:44:12:629,12,B,right,na,None,1.417,3000,1000,624,652,True,PS,MB,NB,1500,10,4000,1000,2000,300,500
0,4,1,2019-11-14,13:44:13:242,12,B,left,na,None,2.03,3000,1000,418,424,True,PS,LM,R1,1500,10,4000,1000,2000,300,500
0,4,1,2019-11-14,13:44:13:437,12,B,left,na,None,2.225,3000,1000,409,404,True,PS,LM,R1,1500,10,4000,1000,2000,300,500
0,4,1,2019-11-14,13:44:13:642,12,B,left,na,None,2.43,3000,1000,407,415,True,PS,LM,R1,1500,10,4000,1000,2000,300,500
0,4,1,2019-11-14,13:44:13:806,12,B,left,na,None,2.594,3000,1000,413,415,True,PS,LM,R1,1500,10,4000,1000,2000,300,500
0,4,1,2019-11-14,13:44:13:994,12,B,left,na,None,2.782,3000,1000,441,437,True,PS,MM,R1,1500,10,4000,1000,2000,300,500
0,4,1,2019-11-14,13:44:14:166,12,B,left,na,None,2.954,3000,1000,411,394,True,PS,LM,R1,1500,10,4000,1000,2000,300,500
0,4,1,2019-11-14,13:44:14:324,12,B,left,na,None,3.112,3000,1000,381,383,True,PS,LM,R1,1500,10,4000,1000,2000,300,500
0,4,1,2019-11-14,13:44:14:497,12,B,left,na,True,0.077,3000,1000,370,391,False,PS,LM,R1,1500,10,4000,1000,2000,300,500
0,4,1,2019-11-14,13:44:14:653,12,B,left,na,None,0.234,3000,1000,378,399,True,PS,LM,R1,1500,10,4000,1000,2000,300,500
0,4,1,2019-11-14,13:44:15:45,12,B,left,na,None,0.626,3000,1000,705,660,True,PS,MB,NB,1500,10,4000,1000,2000,300,500
0,4,1,2019-11-14,13:44:15:281,12,B,left,na,None,0.862,3000,1000,667,656,True,PS,MB,NB,1500,10,4000,1000,2000,300,500
0,4,1,2019-11-14,13:44:15:430,12,B,left,na,None,1.011,3000,1000,662,656,True,PS,MB,NB,1500,10,4000,1000,2000,300,500
0,4,1,2019-11-14,13:44:15:776,13,B,left,na,None,1.357,3000,1000,620,632,True,PS,MB,NB,1500,10,4000,1000,2000,300,500
0,4,1,2019-11-14,13:44:16:255,13,B,left,na,None,1.836,3000,1000,370,418,True,PS,LM,R1,1500,10,4000,1000,2000,300,500
0,4,1,2019-11-14,13:44:16:443,13,B,left,na,None,2.024,3000,1000,379,416,True,PS,LM,R1,1500,10,4000,1000,2000,300,500
0,4,1,2019-11-14,13:44:16:601,13,B,left,na,None,2.182,3000,1000,376,416,True,PS,LM,R1,1500,10,4000,1000,2000,300,500
0,4,1,2019-11-14,13:44:16:758,13,B,left,na,None,2.339,3000,1000,380,418,True,PS,LM,R1,1500,10,4000,1000,2000,300,500
0,4,1,2019-11-14,13:44:16:931,13,B,left,na,None,2.511,3000,1000,403,434,True,PS,LM,R1,1500,10,4000,1000,2000,300,500
0,4,1,2019-11-14,13:44:17:95,13,B,left,na,None,2.676,3000,1000,383,419,True,PS,LM,R1,1500,10,4000,1000,2000,300,500
0,4,1,2019-11-14,13:44:17:274,13,B,left,na,None,2.855,3000,1000,376,409,True,PS,LM,R1,1500,10,4000,1000,2000,300,500
0,4,1,2019-11-14,13:44:17:448,13,B,left,na,None,3.028,3000,1000,375,410,True,PS,LM,R1,1500,10,4000,1000,2000,300,500
0,4,1,2019-11-14,13:44:17:612,13,B,left,na,True,0.03,3000,1000,377,408,False,PS,LM,R1,1500,10,4000,1000,2000,300,500
0,4,1,2019-11-14,13:44:17:768,13,B,left,na,None,0.186,3000,1000,378,406,True,PS,LM,R1,1500,10,4000,1000,2000,300,500
0,4,1,2019-11-14,13:44:17:980,13,B,left,na,None,0.398,3000,1000,480,490,True,PS,MB,None,1500,10,4000,1000,2000,300,500
0,4,1,2019-11-14,13:44:18:216,13,B,left,na,None,0.634,3000,1000,635,633,True,PS,MB,NB,1500,10,4000,1000,2000,300,500
0,4,1,2019-11-14,13:44:18:436,13,B,left,na,None,0.854,3000,1000,652,670,True,PS,MB,NB,1500,10,4000,1000,2000,300,500
0,4,1,2019-11-14,13:44:18:600,13,B,left,na,None,1.018,3000,1000,641,663,True,PS,MB,NB,1500,10,4000,1000,2000,300,500
0,4,1,2019-11-14,13:44:18:946,14,B,left,na,None,1.364,3000,1000,610,621,True,PS,MB,NB,1500,10,4000,1000,2000,300,500
0,4,1,2019-11-14,13:44:19:434,14,B,left,na,None,1.852,3000,1000,382,407,True,PS,LM,R1,1500,10,4000,1000,2000,300,500
0,4,1,2019-11-14,13:44:19:614,14,B,left,na,None,2.032,3000,1000,389,415,True,PS,LM,R1,1500,10,4000,1000,2000,300,500
0,4,1,2019-11-14,13:44:19:764,14,B,left,na,None,2.182,3000,1000,373,406,True,PS,LM,R1,1500,10,4000,1000,2000,300,500
0,4,1,2019-11-14,13:44:19:974,14,B,left,na,None,2.392,3000,1000,364,400,True,PS,LM,R1,1500,10,4000,1000,2000,300,500
0,4,1,2019-11-14,13:44:20:131,14,B,left,na,None,2.55,3000,1000,381,407,True,PS,LM,R1,1500,10,4000,1000,2000,300,500
0,4,1,2019-11-14,13:44:20:312,14,B,left,na,None,2.73,3000,1000,368,407,True,PS,LM,R1,1500,10,4000,1000,2000,300,500
0,4,1,2019-11-14,13:44:20:500,14,B,left,na,None,2.918,3000,1000,368,407,True,PS,LM,R1,1500,10,4000,1000,2000,300,500
0,4,1,2019-11-14,13:44:20:799,14,B,left,na,True,0.024,3000,1000,357,400,False,PS,LM,R1,1500,10,4000,1000,2000,300,500
0,4,1,2019-11-14,13:44:20:986,14,B,left,na,None,0.211,3000,1000,381,412,True,PS,LM,R1,1500,10,4000,1000,2000,300,500
0,4,1,2019-11-14,13:44:21:151,14,B,left,na,None,0.376,3000,1000,405,433,True,PS,LM,R1,1500,10,4000,1000,2000,300,500
0,4,1,2019-11-14,13:44:21:418,14,B,left,na,None,0.643,3000,1000,626,621,True,PS,MB,NB,1500,10,4000,1000,2000,300,500
0,4,1,2019-11-14,13:44:21:614,14,B,left,na,None,0.839,3000,1000,634,644,True,PS,MB,NB,1500,10,4000,1000,2000,300,500
0,4,1,2019-11-14,13:44:21:794,14,B,left,na,None,1.019,3000,1000,640,657,True,PS,MB,NB,1500,10,4000,1000,2000,300,500
0,4,1,2019-11-14,13:44:22:140,15,A,left,na,None,1.365,3000,1000,613,609,True,PS,MB,NB,1500,10,4000,1000,2000,300,500
0,4,1,2019-11-14,13:44:22:652,15,A,left,na,None,1.876,3000,1000,716,475,True,PS,MM,None,1500,10,4000,1000,2000,300,500
0,4,1,2019-11-14,13:44:22:863,15,A,left,na,None,2.087,3000,1000,745,478,True,PS,MM,None,1500,10,4000,1000,2000,300,500
0,4,1,2019-11-14,13:44:23:5,15,A,right,na,None,2.229,3000,1000,761,460,True,PS,MM,R2,1500,10,4000,1000,2000,300,500
0,4,1,2019-11-14,13:44:23:216,15,A,right,na,None,2.441,3000,1000,778,457,True,PS,MM,R2,1500,10,4000,1000,2000,300,500
0,4,1,2019-11-14,13:44:23:412,15,A,right,na,None,2.637,3000,1000,818,476,True,PS,MM,R2,1500,10,4000,1000,2000,300,500
0,4,1,2019-11-14,13:44:23:601,15,A,right,na,None,2.826,3000,1000,810,457,True,PS,MM,R2,1500,10,4000,1000,2000,300,500
0,4,1,2019-11-14,13:44:23:791,15,A,right,na,None,3.015,3000,1000,833,472,True,PS,MM,R2,1500,10,4000,1000,2000,300,500
0,4,1,2019-11-14,13:44:23:977,15,A,right,na,True,0.024,3000,1000,828,464,False,PS,MM,R2,1500,10,4000,1000,2000,300,500
0,4,1,2019-11-14,13:44:24:149,15,A,right,na,None,0.196,3000,1000,808,449,True,PS,MM,R2,1500,10,4000,1000,2000,300,500
0,4,1,2019-11-14,13:44:24:572,15,A,right,na,None,0.619,3000,1000,601,712,True,PS,MB,None,1500,10,4000,1000,2000,300,500
0,4,1,2019-11-14,13:44:24:770,15,A,right,na,None,0.816,3000,1000,589,677,True,PS,MB,NB,1500,10,4000,1000,2000,300,500
0,4,1,2019-11-14,13:44:24:958,15,A,right,na,None,1.005,3000,1000,581,645,True,PS,MB,NB,1500,10,4000,1000,2000,300,500
0,4,1,2019-11-14,13:44:25:381,16,A,right,na,None,1.428,3000,1000,622,648,True,PS,MB,NB,1500,10,4000,1000,2000,300,500
0,4,1,2019-11-14,13:44:25:917,16,A,left,na,None,1.964,3000,1000,392,402,True,PS,LM,R1,1500,10,4000,1000,2000,300,500
0,4,1,2019-11-14,13:44:26:97,16,A,left,na,None,2.144,3000,1000,389,399,True,PS,LM,R1,1500,10,4000,1000,2000,300,500
0,4,1,2019-11-14,13:44:26:269,16,A,left,na,None,2.316,3000,1000,386,402,True,PS,LM,R1,1500,10,4000,1000,2000,300,500
0,4,1,2019-11-14,13:44:26:434,16,A,left,na,None,2.481,3000,1000,406,419,True,PS,LM,R1,1500,10,4000,1000,2000,300,500
0,4,1,2019-11-14,13:44:26:591,16,A,left,na,None,2.638,3000,1000,399,424,True,PS,LM,R1,1500,10,4000,1000,2000,300,500
0,4,1,2019-11-14,13:44:26:723,16,A,left,na,None,2.77,3000,1000,386,414,True,PS,LM,R1,1500,10,4000,1000,2000,300,500
0,4,1,2019-11-14,13:44:26:889,16,A,left,na,None,2.936,3000,1000,385,415,True,PS,LM,R1,1500,10,4000,1000,2000,300,500
0,4,1,2019-11-14,13:44:27:117,16,A,left,na,None,3.164,3000,1000,382,413,True,PS,LM,R1,1500,10,4000,1000,2000,300,500
0,4,1,2019-11-14,13:44:27:314,16,A,left,na,False,0.149,3000,1000,396,417,False,PS,LM,R1,1500,10,4000,1000,2000,300,500
0,4,1,2019-11-14,13:44:27:476,16,A,left,na,None,0.311,3000,1000,395,418,True,PS,LM,R1,1500,10,4000,1000,2000,300,500
0,4,1,2019-11-14,13:44:28:481,16,A,left,na,None,1.316,3000,1000,633,673,True,PS,MB,NB,1500,10,4000,1000,2000,300,500
0,4,1,2019-11-14,13:44:28:724,16,A,left,na,None,1.559,3000,1000,634,695,True,PS,MB,None,1500,10,4000,1000,2000,300,500
0,4,1,2019-11-14,13:44:28:945,16,A,left,na,None,1.78,3000,1000,627,678,True,PS,MB,NB,1500,10,4000,1000,2000,300,500
0,4,1,2019-11-14,13:44:29:205,16,A,left,na,None,2.039,3000,1000,620,671,True,PS,MB,NB,1500,10,4000,1000,2000,300,500
0,4,1,2019-11-14,13:44:29:431,16,A,left,na,None,2.265,3000,1000,620,672,True,PS,MB,NB,1500,10,4000,1000,2000,300,500
0,4,1,2019-11-14,13:44:29:644,16,A,left,na,None,2.479,3000,1000,615,673,True,PS,MB,NB,1500,10,4000,1000,2000,300,500
0,4,1,2019-11-14,13:44:29:849,16,A,left,na,None,2.684,3000,1000,607,666,True,PS,MB,NB,1500,10,4000,1000,2000,300,500
0,4,1,2019-11-14,13:44:30:58,16,A,left,na,None,2.893,3000,1000,633,679,True,PS,MB,None,1500,10,4000,1000,2000,300,500
0,4,1,2019-11-14,13:44:30:247,16,A,left,na,None,3.082,3000,1000,607,661,True,PS,MB,NB,1500,10,4000,1000,2000,300,500
0,4,1,2019-11-14,13:44:30:672,17,B,left,na,None,3.506,3000,1000,608,642,True,PS,MB,NB,1500,10,4000,1000,2000,300,500
0,4,1,2019-11-14,13:44:30:875,17,B,left,na,None,3.71,3000,1000,619,644,True,PS,MB,NB,1500,10,4000,1000,2000,300,500
0,4,1,2019-11-14,13:44:31:80,17,B,left,na,None,3.915,3000,1000,615,644,True,PS,MB,NB,1500,10,4000,1000,2000,300,500
0,4,1,2019-11-14,13:44:31:395,17,B,left,na,None,4.23,3000,1000,386,418,True,PS,LM,R1,1500,10,4000,1000,2000,300,500
0,4,1,2019-11-14,13:44:31:599,17,B,left,na,None,4.434,3000,1000,424,438,True,PS,LM,R1,1500,10,4000,1000,2000,300,500
0,4,1,2019-11-14,13:44:31:803,17,B,left,na,None,4.638,3000,1000,415,436,True,PS,LM,R1,1500,10,4000,1000,2000,300,500
0,4,1,2019-11-14,13:44:32:13,17,B,left,na,None,4.848,3000,1000,402,429,True,PS,LM,R1,1500,10,4000,1000,2000,300,500
0,4,1,2019-11-14,13:44:32:203,17,B,left,na,None,5.038,3000,1000,387,416,True,PS,LM,R1,1500,10,4000,1000,2000,300,500
0,4,1,2019-11-14,13:44:32:383,17,B,left,na,None,5.218,3000,1000,391,419,True,PS,LM,R1,1500,10,4000,1000,2000,300,500
0,4,1,2019-11-14,13:44:32:566,17,B,left,na,True,0.103,3000,1000,387,420,False,PS,LM,R1,1500,10,4000,1000,2000,300,500
0,4,1,2019-11-14,13:44:32:758,17,B,left,na,None,0.295,3000,1000,392,419,True,PS,LM,R1,1500,10,4000,1000,2000,300,500
0,4,1,2019-11-14,13:44:33:103,17,B,left,na,None,0.64,3000,1000,642,621,True,PS,MB,NB,1500,10,4000,1000,2000,300,500
0,4,1,2019-11-14,13:44:33:293,17,B,left,na,None,0.829,3000,1000,631,647,True,PS,MB,NB,1500,10,4000,1000,2000,300,500
0,4,1,2019-11-14,13:44:33:442,17,B,left,na,None,0.978,3000,1000,634,648,True,PS,MB,NB,1500,10,4000,1000,2000,300,500
0,4,1,2019-11-14,13:44:33:802,18,A,left,na,None,1.339,3000,1000,621,631,True,PS,MB,NB,1500,10,4000,1000,2000,300,500
0,4,1,2019-11-14,13:44:33:968,18,A,left,na,None,1.504,3000,1000,614,614,True,PS,MB,NB,1500,10,4000,1000,2000,300,500
0,4,1,2019-11-14,13:44:34:266,18,A,left,na,None,1.803,3000,1000,803,498,True,PS,MB,None,1500,10,4000,1000,2000,300,500
0,4,1,2019-11-14,13:44:34:439,18,A,right,na,None,1.976,3000,1000,787,449,True,PS,MM,R2,1500,10,4000,1000,2000,300,500
0,4,1,2019-11-14,13:44:34:589,18,A,right,na,None,2.126,3000,1000,805,426,True,PS,MM,R2,1500,10,4000,1000,2000,300,500
0,4,1,2019-11-14,13:44:34:754,18,A,right,na,None,2.29,3000,1000,823,437,True,PS,MM,R2,1500,10,4000,1000,2000,300,500
0,4,1,2019-11-14,13:44:35:42,18,A,right,na,None,2.579,3000,1000,833,454,True,PS,MM,R2,1500,10,4000,1000,2000,300,500
0,4,1,2019-11-14,13:44:35:207,18,A,right,na,None,2.744,3000,1000,832,452,True,PS,MM,R2,1500,10,4000,1000,2000,300,500
0,4,1,2019-11-14,13:44:35:359,18,A,right,na,None,2.895,3000,1000,833,449,True,PS,MM,R2,1500,10,4000,1000,2000,300,500
0,4,1,2019-11-14,13:44:35:483,18,A,right,na,None,3.02,3000,1000,824,438,True,PS,MM,R2,1500,10,4000,1000,2000,300,500
0,4,1,2019-11-14,13:44:35:749,18,A,right,na,True,0.118,3000,1000,808,418,False,PS,MM,R2,1500,10,4000,1000,2000,300,500
0,4,1,2019-11-14,13:44:35:914,18,A,right,na,None,0.283,3000,1000,815,427,True,PS,MM,R2,1500,10,4000,1000,2000,300,500
0,4,1,2019-11-14,13:44:36:243,18,A,right,na,None,0.612,3000,1000,636,687,True,PS,MB,None,1500,10,4000,1000,2000,300,500
0,4,1,2019-11-14,13:44:36:432,18,A,right,na,None,0.801,3000,1000,623,674,True,PS,MB,NB,1500,10,4000,1000,2000,300,500
0,4,1,2019-11-14,13:44:36:589,18,A,right,na,None,0.958,3000,1000,613,666,True,PS,MB,NB,1500,10,4000,1000,2000,300,500
0,4,1,2019-11-14,13:44:36:942,19,B,right,na,None,1.311,3000,1000,615,636,True,PS,MB,NB,1500,10,4000,1000,2000,300,500
0,4,1,2019-11-14,13:44:37:123,19,B,right,na,None,1.491,3000,1000,611,636,True,PS,MB,NB,1500,10,4000,1000,2000,300,500
0,4,1,2019-11-14,13:44:37:438,19,B,left,na,None,1.807,3000,1000,402,400,True,PS,LM,R1,1500,10,4000,1000,2000,300,500
0,4,1,2019-11-14,13:44:37:603,19,B,left,na,None,1.972,3000,1000,395,394,True,PS,LM,R1,1500,10,4000,1000,2000,300,500
0,4,1,2019-11-14,13:44:37:767,19,B,left,na,None,2.136,3000,1000,404,396,True,PS,LM,R1,1500,10,4000,1000,2000,300,500
0,4,1,2019-11-14,13:44:37:931,19,B,left,na,None,2.3,3000,1000,420,410,True,PS,LM,R1,1500,10,4000,1000,2000,300,500
0,4,1,2019-11-14,13:44:38:89,19,B,left,na,None,2.458,3000,1000,416,405,True,PS,LM,R1,1500,10,4000,1000,2000,300,500
0,4,1,2019-11-14,13:44:38:276,19,B,left,na,None,2.645,3000,1000,417,407,True,PS,LM,R1,1500,10,4000,1000,2000,300,500
0,4,1,2019-11-14,13:44:38:456,19,B,left,na,None,2.825,3000,1000,432,413,True,PS,MM,R1,1500,10,4000,1000,2000,300,500
0,4,1,2019-11-14,13:44:38:631,19,B,left,na,None,3.0,3000,1000,413,407,True,PS,LM,R1,1500,10,4000,1000,2000,300,500
0,4,1,2019-11-14,13:44:38:812,19,B,left,na,True,0.054,3000,1000,410,404,False,PS,LM,R1,1500,10,4000,1000,2000,300,500
0,4,1,2019-11-14,13:44:38:982,19,B,left,na,None,0.225,3000,1000,414,410,True,PS,LM,R1,1500,10,4000,1000,2000,300,500
0,4,1,2019-11-14,13:44:39:697,19,B,left,na,None,0.939,3000,1000,616,649,True,PS,MB,NB,1500,10,4000,1000,2000,300,500
0,4,1,2019-11-14,13:44:39:996,20,aB,left,na,None,1.238,3000,1000,615,613,True,PS,MB,NB,1500,10,4000,1000,2000,300,500
0,4,1,2019-11-14,13:44:40:246,20,aB,left,na,None,1.489,3000,1000,628,619,True,PS,MB,NB,1500,10,4000,1000,2000,300,500
0,4,1,2019-11-14,13:44:40:435,20,aB,left,na,None,1.678,3000,1000,613,608,True,PS,MB,NB,1500,10,4000,1000,2000,300,500
0,4,1,2019-11-14,13:44:40:593,20,aB,left,na,None,1.835,3000,1000,608,607,True,PS,MB,NB,1500,10,4000,1000,2000,300,500
0,4,1,2019-11-14,13:44:40:725,20,aB,left,na,None,1.968,3000,1000,603,590,True,PS,MB,NB,1500,10,4000,1000,2000,300,500
0,4,1,2019-11-14,13:44:40:983,20,aB,left,na,None,2.226,3000,1000,613,604,True,PS,MB,NB,1500,10,4000,1000,2000,300,500
0,4,1,2019-11-14,13:44:41:172,20,aB,left,na,None,2.415,3000,1000,618,620,True,PS,MB,NB,1500,10,4000,1000,2000,300,500
0,4,1,2019-11-14,13:44:41:337,20,aB,left,na,None,2.58,3000,1000,607,606,True,PS,MB,NB,1500,10,4000,1000,2000,300,500
0,4,1,2019-11-14,13:44:41:503,20,aB,left,na,None,2.746,3000,1000,594,588,True,PS,MB,NB,1500,10,4000,1000,2000,300,500
0,4,1,2019-11-14,13:44:41:707,20,aB,left,na,None,2.95,3000,1000,617,612,True,PS,MB,NB,1500,10,4000,1000,2000,300,500
0,4,1,2019-11-14,13:44:42:60,20,aB,right,na,None,3.303,3000,1000,878,382,True,PS,RM,R2,1500,10,4000,1000,2000,300,500
0,4,1,2019-11-14,13:44:42:241,20,aB,right,na,None,3.484,3000,1000,871,385,True,PS,RM,R2,1500,10,4000,1000,2000,300,500
0,4,1,2019-11-14,13:44:42:406,20,aB,right,na,None,3.649,3000,1000,867,393,True,PS,RM,R2,1500,10,4000,1000,2000,300,500
0,4,1,2019-11-14,13:44:42:563,20,aB,right,na,None,3.806,3000,1000,868,394,True,PS,RM,R2,1500,10,4000,1000,2000,300,500
0,4,1,2019-11-14,13:44:42:726,20,aB,right,na,None,3.969,3000,1000,868,400,True,PS,RM,R2,1500,10,4000,1000,2000,300,500
0,4,1,2019-11-14,13:44:42:899,20,aB,right,na,None,4.141,3000,1000,874,407,True,PS,RM,R2,1500,10,4000,1000,2000,300,500
0,4,1,2019-11-14,13:44:43:64,20,aB,right,na,None,4.307,3000,1000,881,409,True,PS,RM,R2,1500,10,4000,1000,2000,300,500
0,4,1,2019-11-14,13:44:43:244,20,aB,right,na,None,4.487,3000,1000,898,392,True,PS,RM,R2,1500,10,4000,1000,2000,300,500
0,4,1,2019-11-14,13:44:43:440,20,aB,right,na,None,4.683,3000,1000,919,375,True,PS,RM,R2,1500,10,4000,1000,2000,300,500
0,4,1,2019-11-14,13:44:43:606,20,aB,right,na,None,4.848,3000,1000,917,375,True,PS,RM,R2,1500,10,4000,1000,2000,300,500
0,4,1,2019-11-14,13:44:43:769,20,aB,right,na,None,0.081,3000,1000,897,385,False,PS,RM,R2,1500,10,4000,1000,2000,300,500
0,4,1,2019-11-14,13:44:43:927,20,aB,right,na,None,0.239,3000,1000,889,382,True,PS,RM,R2,1500,10,4000,1000,2000,300,500
0,4,1,2019-11-14,13:44:44:445,21,A,right,na,None,0.757,3000,1000,597,611,True,PS,MB,NB,1500,10,4000,1000,2000,300,500
0,4,1,2019-11-14,13:44:45:221,21,A,left,na,None,1.533,3000,1000,360,420,True,PS,LM,R1,1500,10,4000,1000,2000,300,500
0,4,1,2019-11-14,13:44:45:404,21,A,left,na,None,1.716,3000,1000,388,422,True,PS,LM,R1,1500,10,4000,1000,2000,300,500
0,4,1,2019-11-14,13:44:45:568,21,A,left,na,None,1.88,3000,1000,382,416,True,PS,LM,R1,1500,10,4000,1000,2000,300,500
0,4,1,2019-11-14,13:44:45:741,21,A,left,na,None,2.053,3000,1000,363,413,True,PS,LM,R1,1500,10,4000,1000,2000,300,500
0,4,1,2019-11-14,13:44:45:898,21,A,left,na,None,2.21,3000,1000,365,419,True,PS,LM,R1,1500,10,4000,1000,2000,300,500
0,4,1,2019-11-14,13:44:46:63,21,A,left,na,None,2.375,3000,1000,391,442,True,PS,LM,R1,1500,10,4000,1000,2000,300,500
0,4,1,2019-11-14,13:44:46:228,21,A,left,na,None,2.54,3000,1000,399,449,True,PS,LM,R1,1500,10,4000,1000,2000,300,500
0,4,1,2019-11-14,13:44:46:399,21,A,left,na,False,0.125,3000,1000,379,428,False,PS,LM,R1,1500,10,4000,1000,2000,300,500
0,4,1,2019-11-14,13:44:46:571,21,A,left,na,None,0.297,3000,1000,387,431,True,PS,LM,R1,1500,10,4000,1000,2000,300,500
0,4,1,2019-11-14,13:44:47:489,21,A,left,na,None,1.216,3000,1000,577,719,True,PS,MB,None,1500,10,4000,1000,2000,300,500
0,4,1,2019-11-14,13:44:49:665,22,A,left,na,None,3.391,3000,1000,572,622,True,PS,MB,NB,1500,10,4000,1000,2000,300,500
0,4,1,2019-11-14,13:44:50:276,22,A,left,na,None,4.003,3000,1000,408,459,True,PS,LM,R1,1500,10,4000,1000,2000,300,500
0,4,1,2019-11-14,13:44:50:465,22,A,left,na,None,4.191,3000,1000,400,446,True,PS,LM,R1,1500,10,4000,1000,2000,300,500
0,4,1,2019-11-14,13:44:50:662,22,A,left,na,None,4.388,3000,1000,415,465,True,PS,LM,R1,1500,10,4000,1000,2000,300,500
0,4,1,2019-11-14,13:44:50:865,22,A,left,na,None,4.591,3000,1000,425,473,True,PS,LM,R1,1500,10,4000,1000,2000,300,500
0,4,1,2019-11-14,13:44:51:60,22,A,left,na,None,4.786,3000,1000,424,473,True,PS,LM,R1,1500,10,4000,1000,2000,300,500
0,4,1,2019-11-14,13:44:51:250,22,A,left,na,None,4.976,3000,1000,418,469,True,PS,LM,R1,1500,10,4000,1000,2000,300,500
0,4,1,2019-11-14,13:44:51:447,22,A,left,na,None,5.173,3000,1000,420,468,True,PS,LM,R1,1500,10,4000,1000,2000,300,500
0.85,4,1,2019-11-14,13:44:51:635,22,A,left,na,False,0.123,3000,1000,430,471,False,PS,MM,R1,1500,10,4000,1000,2000,300,500
0.85,4,1,2019-11-14,13:44:51:830,22,A,left,na,None,0.318,3000,1000,409,453,True,PS,LM,R1,1500,10,4000,1000,2000,300,500
0.85,4,1,2019-11-14,13:44:52:261,22,A,left,na,None,0.749,3000,1000,585,594,True,PS,MB,NB,1500,10,4000,1000,2000,300,500
0.85,4,1,2019-11-14,13:44:52:473,22,A,left,na,None,0.961,3000,1000,594,608,True,PS,MB,NB,1500,10,4000,1000,2000,300,500
0.85,4,1,2019-11-14,13:44:52:647,22,A,left,na,None,1.135,3000,1000,607,627,True,PS,MB,NB,1500,10,4000,1000,2000,300,500
0.85,4,1,2019-11-14,13:44:52:842,22,A,left,na,None,1.33,3000,1000,609,600,True,PS,MB,NB,1500,10,4000,1000,2000,300,500
0.85,4,1,2019-11-14,13:44:53:30,22,A,left,na,None,1.518,3000,1000,617,605,True,PS,MB,NB,1500,10,4000,1000,2000,300,500
0.85,4,1,2019-11-14,13:44:53:236,22,A,left,na,None,1.724,3000,1000,604,601,True,PS,MB,NB,1500,10,4000,1000,2000,300,500
0.85,4,1,2019-11-14,13:44:53:447,22,A,left,na,None,1.935,3000,1000,607,601,True,PS,MB,NB,1500,10,4000,1000,2000,300,500
0.85,4,1,2019-11-14,13:44:53:637,22,A,left,na,None,2.125,3000,1000,617,617,True,PS,MB,NB,1500,10,4000,1000,2000,300,500
0.85,4,1,2019-11-14,13:44:53:841,22,A,left,na,None,2.329,3000,1000,607,601,True,PS,MB,NB,1500,10,4000,1000,2000,300,500
0.85,4,1,2019-11-14,13:44:54:7,22,A,left,na,None,2.494,3000,1000,595,579,True,PS,MB,NB,1500,10,4000,1000,2000,300,500
0.85,4,1,2019-11-14,13:44:54:203,22,A,left,na,None,2.69,3000,1000,607,594,True,PS,MB,NB,1500,10,4000,1000,2000,300,500
0.85,4,1,2019-11-14,13:44:54:453,22,A,left,na,None,2.941,3000,1000,584,585,True,PS,MB,NB,1500,10,4000,1000,2000,300,500
0.85,4,1,2019-11-14,13:44:54:635,22,A,left,na,None,3.122,3000,1000,586,585,True,PS,MB,NB,1500,10,4000,1000,2000,300,500
0.85,4,1,2019-11-14,13:44:55:2,23,B,left,na,None,3.489,3000,1000,618,613,True,PS,MB,NB,1500,10,4000,1000,2000,300,500
0.85,4,1,2019-11-14,13:44:55:464,23,B,right,na,None,3.952,3000,1000,853,411,True,PS,MM,R2,1500,10,4000,1000,2000,300,500
0.85,4,1,2019-11-14,13:44:55:637,23,B,right,na,None,4.124,3000,1000,840,391,True,PS,MM,R2,1500,10,4000,1000,2000,300,500
0.85,4,1,2019-11-14,13:44:55:850,23,B,right,na,None,4.338,3000,1000,863,404,True,PS,RM,R2,1500,10,4000,1000,2000,300,500
0.85,4,1,2019-11-14,13:44:56:23,23,B,right,na,None,4.511,3000,1000,857,398,True,PS,RM,R2,1500,10,4000,1000,2000,300,500
0.85,4,1,2019-11-14,13:44:56:227,23,B,right,na,None,4.715,3000,1000,871,421,True,PS,RM,R2,1500,10,4000,1000,2000,300,500
0.85,4,1,2019-11-14,13:44:56:414,23,B,right,na,None,4.902,3000,1000,870,427,True,PS,RM,R2,1500,10,4000,1000,2000,300,500
0.85,4,1,2019-11-14,13:44:56:611,23,B,right,na,None,5.099,3000,1000,873,436,True,PS,RM,R2,1500,10,4000,1000,2000,300,500
0.85,4,1,2019-11-14,13:44:56:799,23,B,right,na,None,5.287,3000,1000,865,427,True,PS,RM,R2,1500,10,4000,1000,2000,300,500
0.8,4,1,2019-11-14,13:44:56:988,23,B,right,na,False,0.154,3000,1000,860,426,False,PS,RM,R2,1500,10,4000,1000,2000,300,500
0.8,4,1,2019-11-14,13:44:57:151,23,B,right,na,None,0.318,3000,1000,845,413,True,PS,MM,R2,1500,10,4000,1000,2000,300,500
0.8,4,1,2019-11-14,13:44:57:685,23,B,right,na,None,0.852,3000,1000,540,644,True,PS,MB,None,1500,10,4000,1000,2000,300,500
0.8,4,1,2019-11-14,13:44:57:889,23,B,right,na,None,1.056,3000,1000,560,649,True,PS,MB,None,1500,10,4000,1000,2000,300,500
0.8,4,1,2019-11-14,13:44:58:117,23,B,right,na,None,1.283,3000,1000,585,676,True,PS,MB,NB,1500,10,4000,1000,2000,300,500
0.8,4,1,2019-11-14,13:44:58:337,23,B,right,na,None,1.503,3000,1000,587,653,True,PS,MB,NB,1500,10,4000,1000,2000,300,500
0.8,4,1,2019-11-14,13:44:58:558,23,B,right,na,None,1.725,3000,1000,589,663,True,PS,MB,NB,1500,10,4000,1000,2000,300,500
0.8,4,1,2019-11-14,13:44:58:785,23,B,right,na,None,1.952,3000,1000,587,657,True,PS,MB,NB,1500,10,4000,1000,2000,300,500
0.8,4,1,2019-11-14,13:44:58:965,23,B,right,na,None,2.132,3000,1000,589,659,True,PS,MB,NB,1500,10,4000,1000,2000,300,500
0.8,4,1,2019-11-14,13:44:59:154,23,B,right,na,None,2.32,3000,1000,585,660,True,PS,MB,NB,1500,10,4000,1000,2000,300,500
0.8,4,1,2019-11-14,13:44:59:373,23,B,right,na,None,2.539,3000,1000,580,651,True,PS,MB,NB,1500,10,4000,1000,2000,300,500
0.8,4,1,2019-11-14,13:44:59:569,23,B,right,na,None,2.736,3000,1000,583,659,True,PS,MB,NB,1500,10,4000,1000,2000,300,500
0.8,4,1,2019-11-14,13:44:59:790,23,B,right,na,None,2.956,3000,1000,582,648,True,PS,MB,NB,1500,10,4000,1000,2000,300,500
0.8,4,1,2019-11-14,13:45:00:221,24,B,right,na,None,3.387,3000,1000,589,662,True,PS,MB,NB,1500,10,4000,1000,2000,300,500
0.8,4,1,2019-11-14,13:45:00:433,24,B,right,na,None,3.599,3000,1000,594,666,True,PS,MB,NB,1500,10,4000,1000,2000,300,500
0.8,4,1,2019-11-14,13:45:00:707,24,B,left,na,None,3.873,3000,1000,410,433,True,PS,LM,R1,1500,10,4000,1000,2000,300,500
0.8,4,1,2019-11-14,13:45:00:896,24,B,left,na,None,4.063,3000,1000,401,426,True,PS,LM,R1,1500,10,4000,1000,2000,300,500
0.8,4,1,2019-11-14,13:45:01:93,24,B,left,na,None,4.26,3000,1000,412,436,True,PS,LM,R1,1500,10,4000,1000,2000,300,500
0.8,4,1,2019-11-14,13:45:01:281,24,B,left,na,None,4.447,3000,1000,408,428,True,PS,LM,R1,1500,10,4000,1000,2000,300,500
0.8,4,1,2019-11-14,13:45:01:469,24,B,left,na,None,4.635,3000,1000,400,425,True,PS,LM,R1,1500,10,4000,1000,2000,300,500
0.8,4,1,2019-11-14,13:45:01:634,24,B,left,na,None,4.801,3000,1000,407,427,True,PS,LM,R1,1500,10,4000,1000,2000,300,500
0.8,4,1,2019-11-14,13:45:01:831,24,B,left,na,None,4.997,3000,1000,399,426,True,PS,LM,R1,1500,10,4000,1000,2000,300,500
0.8,4,1,2019-11-14,13:45:01:995,24,B,left,na,None,5.161,3000,1000,399,428,True,PS,LM,R1,1500,10,4000,1000,2000,300,500
0.8,4,1,2019-11-14,13:45:02:176,24,B,left,na,True,0.165,3000,1000,407,435,False,PS,LM,R1,1500,10,4000,1000,2000,300,500
0.8,4,1,2019-11-14,13:45:02:331,24,B,left,na,None,0.32,3000,1000,394,425,True,PS,LM,R1,1500,10,4000,1000,2000,300,500
0.8,4,1,2019-11-14,13:45:02:803,24,B,left,na,None,0.792,3000,1000,666,651,True,PS,MB,NB,1500,10,4000,1000,2000,300,500
0.8,4,1,2019-11-14,13:45:03:15,24,B,left,na,None,1.004,3000,1000,658,651,True,PS,MB,NB,1500,10,4000,1000,2000,300,500
0.8,4,1,2019-11-14,13:45:03:375,25,B,left,na,None,1.364,3000,1000,652,642,True,PS,MB,NB,1500,10,4000,1000,2000,300,500
0.8,4,1,2019-11-14,13:45:03:548,25,B,left,na,None,1.537,3000,1000,629,608,True,PS,MB,NB,1500,10,4000,1000,2000,300,500
0.8,4,1,2019-11-14,13:45:03:714,25,B,left,na,None,1.703,3000,1000,615,590,True,PS,MB,NB,1500,10,4000,1000,2000,300,500
0.8,4,1,2019-11-14,13:45:03:942,25,B,left,na,None,1.931,3000,1000,390,378,True,PS,LM,R1,1500,10,4000,1000,2000,300,500
0.8,4,1,2019-11-14,13:45:04:131,25,B,left,na,None,2.12,3000,1000,390,387,True,PS,LM,R1,1500,10,4000,1000,2000,300,500
0.8,4,1,2019-11-14,13:45:04:296,25,B,left,na,None,2.285,3000,1000,385,391,True,PS,LM,R1,1500,10,4000,1000,2000,300,500
0.8,4,1,2019-11-14,13:45:04:483,25,B,left,na,None,2.472,3000,1000,377,396,True,PS,LM,R1,1500,10,4000,1000,2000,300,500
0.8,4,1,2019-11-14,13:45:04:665,25,B,left,na,None,2.654,3000,1000,363,392,True,PS,LM,R1,1500,10,4000,1000,2000,300,500
0.8,4,1,2019-11-14,13:45:04:852,25,B,left,na,None,2.841,3000,1000,360,394,True,PS,LM,R1,1500,10,4000,1000,2000,300,500
0.8,4,1,2019-11-14,13:45:05:9,25,B,left,na,None,2.998,3000,1000,354,397,True,PS,LM,R1,1500,10,4000,1000,2000,300,500
0.8,4,1,2019-11-14,13:45:05:164,25,B,left,na,None,3.153,3000,1000,342,393,True,PS,LM,R1,1500,10,4000,1000,2000,300,500
0.8,4,1,2019-11-14,13:45:05:330,25,B,left,na,True,0.149,3000,1000,340,390,False,PS,LM,R1,1500,10,4000,1000,2000,300,500
0.8,4,1,2019-11-14,13:45:05:683,25,B,left,na,None,0.502,3000,1000,626,606,True,PS,MB,NB,1500,10,4000,1000,2000,300,500
0.8,4,1,2019-11-14,13:45:05:973,25,B,left,na,None,0.792,3000,1000,632,615,True,PS,MB,NB,1500,10,4000,1000,2000,300,500
0.8,4,1,2019-11-14,13:45:06:163,25,B,left,na,None,0.982,3000,1000,637,638,True,PS,MB,NB,1500,10,4000,1000,2000,300,500
0.8,4,1,2019-11-14,13:45:06:727,26,A,left,na,None,1.546,3000,1000,603,608,True,PS,MB,NB,1500,10,4000,1000,2000,300,500
0.8,4,1,2019-11-14,13:45:07:198,26,A,left,na,None,2.017,3000,1000,736,450,True,PS,MM,None,1500,10,4000,1000,2000,300,500
0.8,4,1,2019-11-14,13:45:07:394,26,A,right,na,None,2.213,3000,1000,761,431,True,PS,MM,R2,1500,10,4000,1000,2000,300,500
0.8,4,1,2019-11-14,13:45:07:553,26,A,right,na,None,2.372,3000,1000,769,434,True,PS,MM,R2,1500,10,4000,1000,2000,300,500
0.8,4,1,2019-11-14,13:45:07:733,26,A,right,na,None,2.552,3000,1000,765,435,True,PS,MM,R2,1500,10,4000,1000,2000,300,500
0.8,4,1,2019-11-14,13:45:07:890,26,A,right,na,None,2.709,3000,1000,760,437,True,PS,MM,R2,1500,10,4000,1000,2000,300,500
0.8,4,1,2019-11-14,13:45:08:139,26,A,right,na,None,2.958,3000,1000,777,453,True,PS,MM,R2,1500,10,4000,1000,2000,300,500
0.8,4,1,2019-11-14,13:45:08:336,26,A,right,na,None,3.155,3000,1000,779,465,True,PS,MM,R2,1500,10,4000,1000,2000,300,500
0.8,4,1,2019-11-14,13:45:08:518,26,A,right,na,None,3.336,3000,1000,763,462,True,PS,MM,R2,1500,10,4000,1000,2000,300,500
0.8,4,1,2019-11-14,13:45:08:690,26,A,right,na,True,0.147,3000,1000,762,464,False,PS,MM,R2,1500,10,4000,1000,2000,300,500
0.8,4,1,2019-11-14,13:45:08:876,26,A,right,na,None,0.334,3000,1000,783,463,True,PS,MM,R2,1500,10,4000,1000,2000,300,500
0.8,4,1,2019-11-14,13:45:09:80,26,A,right,na,None,0.538,3000,1000,714,430,True,PS,MM,None,1500,10,4000,1000,2000,300,500
0.8,4,1,2019-11-14,13:45:09:340,26,A,right,na,None,0.797,3000,1000,611,626,True,PS,MB,NB,1500,10,4000,1000,2000,300,500
0.8,4,1,2019-11-14,13:45:09:513,26,A,right,na,None,0.97,3000,1000,568,677,True,PS,MB,NB,1500,10,4000,1000,2000,300,500
0.8,4,1,2019-11-14,13:45:09:700,26,A,right,na,None,1.158,3000,1000,557,679,True,PS,MB,None,1500,10,4000,1000,2000,300,500
0.8,4,1,2019-11-14,13:45:10:69,27,B,right,na,None,1.527,3000,1000,583,644,True,PS,MB,NB,1500,10,4000,1000,2000,300,500
0.8,4,1,2019-11-14,13:45:10:321,27,B,left,na,None,1.778,3000,1000,370,370,True,PS,LM,R1,1500,10,4000,1000,2000,300,500
0.8,4,1,2019-11-14,13:45:10:502,27,B,left,na,None,1.959,3000,1000,382,378,True,PS,LM,R1,1500,10,4000,1000,2000,300,500
0.8,4,1,2019-11-14,13:45:10:691,27,B,left,na,None,2.149,3000,1000,371,384,True,PS,LM,R1,1500,10,4000,1000,2000,300,500
0.8,4,1,2019-11-14,13:45:10:872,27,B,left,na,None,2.33,3000,1000,387,405,True,PS,LM,R1,1500,10,4000,1000,2000,300,500
0.8,4,1,2019-11-14,13:45:11:52,27,B,left,na,None,2.509,3000,1000,387,426,True,PS,LM,R1,1500,10,4000,1000,2000,300,500
0.8,4,1,2019-11-14,13:45:11:233,27,B,left,na,None,2.691,3000,1000,381,428,True,PS,LM,R1,1500,10,4000,1000,2000,300,500
0.8,4,1,2019-11-14,13:45:11:404,27,B,left,na,None,2.862,3000,1000,379,420,True,PS,LM,R1,1500,10,4000,1000,2000,300,500
0.8,4,1,2019-11-14,13:45:11:601,27,B,left,na,None,3.058,3000,1000,367,411,True,PS,LM,R1,1500,10,4000,1000,2000,300,500
0.8,4,1,2019-11-14,13:45:11:782,27,B,left,na,None,3.24,3000,1000,363,413,True,PS,LM,R1,1500,10,4000,1000,2000,300,500
0.8,4,1,2019-11-14,13:45:11:955,27,B,left,na,True,0.07,3000,1000,378,418,False,PS,LM,R1,1500,10,4000,1000,2000,300,500
0.8,4,1,2019-11-14,13:45:12:125,27,B,left,na,None,0.24,3000,1000,379,419,True,PS,LM,R1,1500,10,4000,1000,2000,300,500
0.8,4,1,2019-11-14,13:45:12:425,27,B,left,na,None,0.539,3000,1000,634,660,True,PS,MB,NB,1500,10,4000,1000,2000,300,500
0.8,4,1,2019-11-14,13:45:12:637,27,B,left,na,None,0.752,3000,1000,635,628,True,PS,MB,NB,1500,10,4000,1000,2000,300,500
0.8,4,1,2019-11-14,13:45:12:794,27,B,left,na,None,0.908,3000,1000,629,617,True,PS,MB,NB,1500,10,4000,1000,2000,300,500
0.8,4,1,2019-11-14,13:45:13:155,28,A,left,na,None,1.27,3000,1000,625,629,True,PS,MB,NB,1500,10,4000,1000,2000,300,500
0.8,4,1,2019-11-14,13:45:13:335,28,A,left,na,None,1.449,3000,1000,609,617,True,PS,MB,NB,1500,10,4000,1000,2000,300,500
0.8,4,1,2019-11-14,13:45:13:595,28,A,left,na,None,1.709,3000,1000,456,453,True,PS,MM,R1,1500,10,4000,1000,2000,300,500
0.8,4,1,2019-11-14,13:45:13:807,28,A,left,na,None,1.922,3000,1000,387,401,True,PS,LM,R1,1500,10,4000,1000,2000,300,500
0.8,4,1,2019-11-14,13:45:13:996,28,A,left,na,None,2.11,3000,1000,396,409,True,PS,LM,R1,1500,10,4000,1000,2000,300,500
0.8,4,1,2019-11-14,13:45:14:185,28,A,left,na,None,2.299,3000,1000,384,411,True,PS,LM,R1,1500,10,4000,1000,2000,300,500
0.8,4,1,2019-11-14,13:45:14:364,28,A,left,na,None,2.478,3000,1000,397,428,True,PS,LM,R1,1500,10,4000,1000,2000,300,500
0.8,4,1,2019-11-14,13:45:14:545,28,A,left,na,None,2.659,3000,1000,423,440,True,PS,LM,R1,1500,10,4000,1000,2000,300,500
0.8,4,1,2019-11-14,13:45:14:741,28,A,left,na,None,2.856,3000,1000,417,442,True,PS,LM,R1,1500,10,4000,1000,2000,300,500
0.8,4,1,2019-11-14,13:45:14:921,28,A,left,na,None,3.036,3000,1000,377,417,True,PS,LM,R1,1500,10,4000,1000,2000,300,500
0.75,4,1,2019-11-14,13:45:15:85,28,A,left,na,False,0.108,3000,1000,390,422,False,PS,LM,R1,1500,10,4000,1000,2000,300,500
0.75,4,1,2019-11-14,13:45:15:288,28,A,left,na,None,0.312,3000,1000,415,434,True,PS,LM,R1,1500,10,4000,1000,2000,300,500
0.75,4,1,2019-11-14,13:45:15:697,28,A,left,na,None,0.72,3000,1000,595,564,True,PS,MB,NB,1500,10,4000,1000,2000,300,500
0.75,4,1,2019-11-14,13:45:15:870,28,A,left,na,None,0.893,3000,1000,589,578,True,PS,MB,NB,1500,10,4000,1000,2000,300,500
0.75,4,1,2019-11-14,13:45:16:49,28,A,left,na,None,1.073,3000,1000,585,584,True,PS,MB,NB,1500,10,4000,1000,2000,300,500
0.75,4,1,2019-11-14,13:45:16:404,28,A,left,na,None,1.427,3000,1000,561,533,True,PS,MB,None,1500,10,4000,1000,2000,300,500
0.75,4,1,2019-11-14,13:45:16:593,28,A,left,na,None,1.617,3000,1000,571,544,True,PS,MB,NB,1500,10,4000,1000,2000,300,500
0.75,4,1,2019-11-14,13:45:16:774,28,A,left,na,None,1.798,3000,1000,595,577,True,PS,MB,NB,1500,10,4000,1000,2000,300,500
0.75,4,1,2019-11-14,13:45:16:947,28,A,left,na,None,1.97,3000,1000,592,579,True,PS,MB,NB,1500,10,4000,1000,2000,300,500
0.75,4,1,2019-11-14,13:45:17:118,28,A,left,na,None,2.141,3000,1000,602,594,True,PS,MB,NB,1500,10,4000,1000,2000,300,500
0.75,4,1,2019-11-14,13:45:17:306,28,A,left,na,None,2.33,3000,1000,592,587,True,PS,MB,NB,1500,10,4000,1000,2000,300,500
0.75,4,1,2019-11-14,13:45:17:480,28,A,left,na,None,2.503,3000,1000,577,569,True,PS,MB,NB,1500,10,4000,1000,2000,300,500
0.75,4,1,2019-11-14,13:45:17:660,28,A,left,na,None,2.683,3000,1000,573,570,True,PS,MB,NB,1500,10,4000,1000,2000,300,500
0.75,4,1,2019-11-14,13:45:17:833,28,A,left,na,None,2.856,3000,1000,575,573,True,PS,MB,NB,1500,10,4000,1000,2000,300,500
0.75,4,1,2019-11-14,13:45:18:13,28,A,left,na,None,3.036,3000,1000,580,578,True,PS,MB,NB,1500,10,4000,1000,2000,300,500
0.75,4,1,2019-11-14,13:45:18:366,29,B,left,na,None,3.39,3000,1000,585,579,True,PS,MB,NB,1500,10,4000,1000,2000,300,500
0.75,4,1,2019-11-14,13:45:18:547,29,B,left,na,None,3.57,3000,1000,595,578,True,PS,MB,NB,1500,10,4000,1000,2000,300,500
0.75,4,1,2019-11-14,13:45:18:877,29,B,left,na,None,3.9,3000,1000,331,377,True,PS,LM,R1,1500,10,4000,1000,2000,300,500
0.75,4,1,2019-11-14,13:45:19:65,29,B,left,na,None,4.088,3000,1000,364,401,True,PS,LM,R1,1500,10,4000,1000,2000,300,500
0.75,4,1,2019-11-14,13:45:19:252,29,B,left,na,None,4.276,3000,1000,380,411,True,PS,LM,R1,1500,10,4000,1000,2000,300,500
0.75,4,1,2019-11-14,13:45:19:450,29,B,left,na,None,4.473,3000,1000,393,427,True,PS,LM,R1,1500,10,4000,1000,2000,300,500
0.75,4,1,2019-11-14,13:45:19:654,29,B,left,na,None,4.678,3000,1000,358,405,True,PS,LM,R1,1500,10,4000,1000,2000,300,500
0.75,4,1,2019-11-14,13:45:19:841,29,B,left,na,None,4.864,3000,1000,352,409,True,PS,LM,R1,1500,10,4000,1000,2000,300,500
0.75,4,1,2019-11-14,13:45:20:23,29,B,left,na,None,5.046,3000,1000,371,414,True,PS,LM,R1,1500,10,4000,1000,2000,300,500
0.75,4,1,2019-11-14,13:45:20:210,29,B,left,na,True,0.03,3000,1000,387,425,False,PS,LM,R1,1500,10,4000,1000,2000,300,500
0.75,4,1,2019-11-14,13:45:20:382,29,B,left,na,None,0.203,3000,1000,361,408,True,PS,LM,R1,1500,10,4000,1000,2000,300,500
0.75,4,1,2019-11-14,13:45:20:767,29,B,left,na,None,0.587,3000,1000,606,617,True,PS,MB,NB,1500,10,4000,1000,2000,300,500
0.75,4,1,2019-11-14,13:45:20:995,29,B,left,na,None,0.815,3000,1000,630,634,True,PS,MB,NB,1500,10,4000,1000,2000,300,500
0.75,4,1,2019-11-14,13:45:21:159,29,B,left,na,None,0.98,3000,1000,628,638,True,PS,MB,NB,1500,10,4000,1000,2000,300,500
0.75,4,1,2019-11-14,13:45:21:520,30,AB,left,na,None,1.341,3000,1000,605,603,True,PS,MB,NB,1500,10,4000,1000,2000,300,500
0.75,4,1,2019-11-14,13:45:21:889,30,AB,left,na,None,1.709,3000,1000,348,385,True,PS,LM,R1,1500,10,4000,1000,2000,300,500
0.75,4,1,2019-11-14,13:45:22:78,30,AB,left,na,None,1.899,3000,1000,360,399,True,PS,LM,R1,1500,10,4000,1000,2000,300,500
0.75,4,1,2019-11-14,13:45:22:258,30,AB,left,na,None,2.079,3000,1000,372,409,True,PS,LM,R1,1500,10,4000,1000,2000,300,500
0.75,4,1,2019-11-14,13:45:22:439,30,AB,left,na,None,2.26,3000,1000,364,407,True,PS,LM,R1,1500,10,4000,1000,2000,300,500
0.75,4,1,2019-11-14,13:45:22:619,30,AB,left,na,None,2.44,3000,1000,382,419,True,PS,LM,R1,1500,10,4000,1000,2000,300,500
0.75,4,1,2019-11-14,13:45:22:800,30,AB,left,na,None,2.621,3000,1000,381,423,True,PS,LM,R1,1500,10,4000,1000,2000,300,500
0.75,4,1,2019-11-14,13:45:22:996,30,AB,left,na,None,2.816,3000,1000,389,426,True,PS,LM,R1,1500,10,4000,1000,2000,300,500
0.75,4,1,2019-11-14,13:45:23:170,30,AB,left,na,None,2.991,3000,1000,392,430,True,PS,LM,R1,1500,10,4000,1000,2000,300,500
0.75,4,1,2019-11-14,13:45:23:349,30,AB,left,na,None,3.17,3000,1000,365,416,True,PS,LM,R1,1500,10,4000,1000,2000,300,500
0.75,4,1,2019-11-14,13:45:23:529,30,AB,left,na,None,3.35,3000,1000,363,407,True,PS,LM,R1,1500,10,4000,1000,2000,300,500
0.75,4,1,2019-11-14,13:45:23:702,30,AB,left,na,None,3.522,3000,1000,381,418,True,PS,LM,R1,1500,10,4000,1000,2000,300,500
0.75,4,1,2019-11-14,13:45:23:876,30,AB,left,na,None,3.697,3000,1000,378,419,True,PS,LM,R1,1500,10,4000,1000,2000,300,500
0.75,4,1,2019-11-14,13:45:24:64,30,AB,left,na,None,3.885,3000,1000,369,413,True,PS,LM,R1,1500,10,4000,1000,2000,300,500
0.75,4,1,2019-11-14,13:45:24:245,30,AB,left,na,None,4.066,3000,1000,375,416,True,PS,LM,R1,1500,10,4000,1000,2000,300,500
0.75,4,1,2019-11-14,13:45:24:418,30,AB,left,na,None,4.239,3000,1000,368,413,True,PS,LM,R1,1500,10,4000,1000,2000,300,500
0.75,4,1,2019-11-14,13:45:24:582,30,AB,left,na,None,4.403,3000,1000,368,414,True,PS,LM,R1,1500,10,4000,1000,2000,300,500
0.75,4,1,2019-11-14,13:45:24:763,30,AB,left,na,None,4.583,3000,1000,369,418,True,PS,LM,R1,1500,10,4000,1000,2000,300,500
0.75,4,1,2019-11-14,13:45:24:958,30,AB,left,na,None,4.779,3000,1000,364,415,True,PS,LM,R1,1500,10,4000,1000,2000,300,500
0.75,4,1,2019-11-14,13:45:25:139,30,AB,left,na,None,4.959,3000,1000,369,417,True,PS,LM,R1,1500,10,4000,1000,2000,300,500
0.75,4,1,2019-11-14,13:45:25:319,30,AB,left,na,None,5.14,3000,1000,376,420,True,PS,LM,R1,1500,10,4000,1000,2000,300,500
0.75,4,1,2019-11-14,13:45:25:484,30,AB,left,na,None,5.304,3000,1000,366,414,True,PS,LM,R1,1500,10,4000,1000,2000,300,500
0.75,4,1,2019-11-14,13:45:25:657,30,AB,left,na,None,5.477,3000,1000,379,418,True,PS,LM,R1,1500,10,4000,1000,2000,300,500
0.75,4,1,2019-11-14,13:45:25:821,30,AB,left,na,None,5.641,3000,1000,377,416,True,PS,LM,R1,1500,10,4000,1000,2000,300,500
0.75,4,1,2019-11-14,13:45:25:963,30,AB,left,na,None,5.783,3000,1000,365,407,True,PS,LM,R1,1500,10,4000,1000,2000,300,500
0.75,4,1,2019-11-14,13:45:26:135,30,AB,left,na,None,5.956,3000,1000,369,413,True,PS,LM,R1,1500,10,4000,1000,2000,300,500
0.75,4,1,2019-11-14,13:45:26:325,30,AB,left,na,None,6.145,3000,1000,381,420,True,PS,LM,R1,1500,10,4000,1000,2000,300,500
0.75,4,1,2019-11-14,13:45:26:496,30,AB,left,na,None,6.316,3000,1000,363,412,True,PS,LM,R1,1500,10,4000,1000,2000,300,500
0.75,4,1,2019-11-14,13:45:26:686,30,AB,left,na,None,6.506,3000,1000,364,408,True,PS,LM,R1,1500,10,4000,1000,2000,300,500
0.75,4,1,2019-11-14,13:45:26:848,30,AB,left,na,None,6.669,3000,1000,367,410,True,PS,LM,R1,1500,10,4000,1000,2000,300,500
0.75,4,1,2019-11-14,13:45:27:22,30,AB,left,na,None,6.842,3000,1000,372,415,True,PS,LM,R1,1500,10,4000,1000,2000,300,500
0.75,4,1,2019-11-14,13:45:27:171,30,AB,left,na,None,6.992,3000,1000,360,404,True,PS,LM,R1,1500,10,4000,1000,2000,300,500
0.75,4,1,2019-11-14,13:45:27:360,30,AB,left,na,None,7.18,3000,1000,385,420,True,PS,LM,R1,1500,10,4000,1000,2000,300,500
0.75,4,1,2019-11-14,13:45:27:557,30,AB,left,na,None,7.377,3000,1000,380,419,True,PS,LM,R1,1500,10,4000,1000,2000,300,500
0.75,4,1,2019-11-14,13:45:27:721,30,AB,left,na,None,7.541,3000,1000,384,419,True,PS,LM,R1,1500,10,4000,1000,2000,300,500
0.75,4,1,2019-11-14,13:45:27:917,30,AB,left,na,None,7.738,3000,1000,377,420,True,PS,LM,R1,1500,10,4000,1000,2000,300,500
0.75,4,1,2019-11-14,13:45:28:98,30,AB,left,na,None,7.918,3000,1000,395,430,True,PS,LM,R1,1500,10,4000,1000,2000,300,500
0.75,4,1,2019-11-14,13:45:28:277,30,AB,left,na,None,0.134,3000,1000,391,421,False,PS,LM,R1,1500,10,4000,1000,2000,300,500
0.75,4,1,2019-11-14,13:45:28:450,30,AB,left,na,None,0.307,3000,1000,381,411,True,PS,LM,R1,1500,10,4000,1000,2000,300,500
0.75,4,1,2019-11-14,13:45:28:616,30,AB,left,na,None,0.472,3000,1000,430,449,True,PS,MM,R1,1500,10,4000,1000,2000,300,500
0.75,4,1,2019-11-14,13:45:29:15,31,A,left,na,None,0.872,3000,1000,622,596,True,PS,MB,NB,1500,10,4000,1000,2000,300,500
0.75,4,1,2019-11-14,13:45:29:188,31,A,left,na,None,1.045,3000,1000,601,577,True,PS,MB,NB,1500,10,4000,1000,2000,300,500
0.75,4,1,2019-11-14,13:45:29:384,31,A,left,na,None,1.241,3000,1000,334,392,True,PS,LM,R1,1500,10,4000,1000,2000,300,500
0.75,4,1,2019-11-14,13:45:29:574,31,A,left,na,None,1.431,3000,1000,390,419,True,PS,LM,R1,1500,10,4000,1000,2000,300,500
0.75,4,1,2019-11-14,13:45:29:730,31,A,left,na,None,1.587,3000,1000,382,408,True,PS,LM,R1,1500,10,4000,1000,2000,300,500
0.75,4,1,2019-11-14,13:45:29:910,31,A,left,na,None,1.767,3000,1000,377,409,True,PS,LM,R1,1500,10,4000,1000,2000,300,500
0.75,4,1,2019-11-14,13:45:30:192,31,A,left,na,None,2.049,3000,1000,656,554,True,PS,MB,NB,1500,10,4000,1000,2000,300,500
0.75,4,1,2019-11-14,13:45:30:412,31,A,left,na,None,2.269,3000,1000,715,479,True,PS,MM,None,1500,10,4000,1000,2000,300,500
0.75,4,1,2019-11-14,13:45:30:593,31,A,right,na,None,2.45,3000,1000,764,471,True,PS,MM,R2,1500,10,4000,1000,2000,300,500
0.75,4,1,2019-11-14,13:45:30:758,31,A,right,na,None,2.615,3000,1000,806,470,True,PS,MM,R2,1500,10,4000,1000,2000,300,500
0.75,4,1,2019-11-14,13:45:30:947,31,A,right,na,True,0.123,3000,1000,825,455,False,PS,MM,R2,1500,10,4000,1000,2000,300,500
0.75,4,1,2019-11-14,13:45:31:118,31,A,right,na,None,0.294,3000,1000,860,439,True,PS,RM,R2,1500,10,4000,1000,2000,300,500
0.75,4,1,2019-11-14,13:45:31:494,31,A,right,na,None,0.67,3000,1000,584,660,True,PS,MB,NB,1500,10,4000,1000,2000,300,500
0.75,4,1,2019-11-14,13:45:31:708,31,A,right,na,None,0.883,3000,1000,588,629,True,PS,MB,NB,1500,10,4000,1000,2000,300,500
0.75,4,1,2019-11-14,13:45:31:895,31,A,right,na,None,1.071,3000,1000,573,616,True,PS,MB,NB,1500,10,4000,1000,2000,300,500
0.75,4,1,2019-11-14,13:45:32:263,32,A,right,na,None,1.439,3000,1000,565,589,True,PS,MB,NB,1500,10,4000,1000,2000,300,500
0.75,4,1,2019-11-14,13:45:32:532,32,A,left,na,None,1.708,3000,1000,362,373,True,PS,LM,R1,1500,10,4000,1000,2000,300,500
0.75,4,1,2019-11-14,13:45:32:830,32,A,right,na,None,2.006,3000,1000,873,476,True,PS,RM,R2,1500,10,4000,1000,2000,300,500
0.75,4,1,2019-11-14,13:45:33:9,32,A,right,na,None,2.185,3000,1000,867,417,True,PS,RM,R2,1500,10,4000,1000,2000,300,500
0.75,4,1,2019-11-14,13:45:33:199,32,A,right,na,None,2.374,3000,1000,843,395,True,PS,MM,R2,1500,10,4000,1000,2000,300,500
0.75,4,1,2019-11-14,13:45:33:411,32,A,right,na,None,2.586,3000,1000,854,407,True,PS,RM,R2,1500,10,4000,1000,2000,300,500
0.75,4,1,2019-11-14,13:45:33:599,32,A,right,na,None,2.774,3000,1000,871,427,True,PS,RM,R2,1500,10,4000,1000,2000,300,500
0.75,4,1,2019-11-14,13:45:33:788,32,A,right,na,None,2.964,3000,1000,873,435,True,PS,RM,R2,1500,10,4000,1000,2000,300,500
0.75,4,1,2019-11-14,13:45:33:968,32,A,right,na,None,3.144,3000,1000,847,410,True,PS,MM,R2,1500,10,4000,1000,2000,300,500
0.75,4,1,2019-11-14,13:45:34:188,32,A,right,na,True,0.101,3000,1000,843,408,False,PS,MM,R2,1500,10,4000,1000,2000,300,500
0.75,4,1,2019-11-14,13:45:34:368,32,A,right,na,None,0.28,3000,1000,851,418,True,PS,MM,R2,1500,10,4000,1000,2000,300,500
0.75,4,1,2019-11-14,13:45:34:768,32,A,right,na,None,0.68,3000,1000,589,698,True,PS,MB,None,1500,10,4000,1000,2000,300,500
0.75,4,1,2019-11-14,13:45:34:948,32,A,right,na,None,0.86,3000,1000,597,703,True,PS,MB,None,1500,10,4000,1000,2000,300,500
0.75,4,1,2019-11-14,13:45:35:136,32,A,right,na,None,1.049,3000,1000,578,689,True,PS,MB,None,1500,10,4000,1000,2000,300,500
0.75,4,1,2019-11-14,13:45:35:348,32,A,right,na,None,1.261,3000,1000,560,663,True,PS,MB,None,1500,10,4000,1000,2000,300,500
0.75,4,1,2019-11-14,13:45:35:741,33,A,right,na,None,1.654,3000,1000,633,610,True,PS,MB,NB,1500,10,4000,1000,2000,300,500
0.75,4,1,2019-11-14,13:45:36:81,33,A,right,na,None,1.993,3000,1000,819,404,True,PS,MM,R2,1500,10,4000,1000,2000,300,500
0.75,4,1,2019-11-14,13:45:36:252,33,A,right,na,None,2.165,3000,1000,834,389,True,PS,MM,R2,1500,10,4000,1000,2000,300,500
0.75,4,1,2019-11-14,13:45:36:433,33,A,right,na,None,2.346,3000,1000,863,380,True,PS,RM,R2,1500,10,4000,1000,2000,300,500
0.75,4,1,2019-11-14,13:45:36:637,33,A,right,na,None,2.55,3000,1000,869,372,True,PS,RM,R2,1500,10,4000,1000,2000,300,500
0.75,4,1,2019-11-14,13:45:36:816,33,A,right,na,None,2.729,3000,1000,865,372,True,PS,RM,R2,1500,10,4000,1000,2000,300,500
0.75,4,1,2019-11-14,13:45:37:6,33,A,right,na,None,2.918,3000,1000,868,386,True,PS,RM,R2,1500,10,4000,1000,2000,300,500
0.75,4,1,2019-11-14,13:45:37:193,33,A,right,na,None,3.106,3000,1000,890,410,True,PS,RM,R2,1500,10,4000,1000,2000,300,500
0.75,4,1,2019-11-14,13:45:37:382,33,A,right,na,None,3.294,3000,1000,896,420,True,PS,RM,R2,1500,10,4000,1000,2000,300,500
0.75,4,1,2019-11-14,13:45:37:531,33,A,right,na,None,3.444,3000,1000,869,398,True,PS,RM,R2,1500,10,4000,1000,2000,300,500
0.75,4,1,2019-11-14,13:45:37:735,33,A,right,na,True,0.179,3000,1000,879,418,False,PS,RM,R2,1500,10,4000,1000,2000,300,500
0.75,4,1,2019-11-14,13:45:37:961,33,A,right,na,None,0.405,3000,1000,897,520,True,PS,RB,None,1500,10,4000,1000,2000,300,500
0.75,4,1,2019-11-14,13:45:38:267,33,A,right,na,None,0.711,3000,1000,632,688,True,PS,MB,None,1500,10,4000,1000,2000,300,500
0.75,4,1,2019-11-14,13:45:38:456,33,A,right,na,None,0.899,3000,1000,606,650,True,PS,MB,NB,1500,10,4000,1000,2000,300,500
0.75,4,1,2019-11-14,13:45:38:644,33,A,right,na,None,1.088,3000,1000,613,675,True,PS,MB,NB,1500,10,4000,1000,2000,300,500
0.75,4,1,2019-11-14,13:45:39:70,34,B,right,na,None,1.514,3000,1000,603,648,True,PS,MB,NB,1500,10,4000,1000,2000,300,500
0.75,4,1,2019-11-14,13:45:39:273,34,B,right,na,None,1.717,3000,1000,630,618,True,PS,MB,NB,1500,10,4000,1000,2000,300,500
0.75,4,1,2019-11-14,13:45:39:469,34,B,right,na,None,1.912,3000,1000,631,645,True,PS,MB,NB,1500,10,4000,1000,2000,300,500
0.75,4,1,2019-11-14,13:45:39:839,34,B,right,na,None,2.283,3000,1000,915,378,True,PS,RM,R2,1500,10,4000,1000,2000,300,500
0.75,4,1,2019-11-14,13:45:40:26,34,B,right,na,None,2.469,3000,1000,872,357,True,PS,RM,R2,1500,10,4000,1000,2000,300,500
0.75,4,1,2019-11-14,13:45:40:221,34,B,right,na,None,2.665,3000,1000,906,418,True,PS,RM,R2,1500,10,4000,1000,2000,300,500
0.75,4,1,2019-11-14,13:45:40:403,34,B,right,na,None,2.846,3000,1000,889,394,True,PS,RM,R2,1500,10,4000,1000,2000,300,500
0.75,4,1,2019-11-14,13:45:40:599,34,B,right,na,None,3.043,3000,1000,925,439,True,PS,RM,R2,1500,10,4000,1000,2000,300,500
0.75,4,1,2019-11-14,13:45:40:780,34,B,right,na,None,3.224,3000,1000,852,384,True,PS,MM,R2,1500,10,4000,1000,2000,300,500
0.7,4,1,2019-11-14,13:45:40:963,34,B,right,na,False,0.087,3000,1000,960,464,False,PS,RM,R2,1500,10,4000,1000,2000,300,500
0.7,4,1,2019-11-14,13:45:41:148,34,B,right,na,None,0.272,3000,1000,871,395,True,PS,RM,R2,1500,10,4000,1000,2000,300,500
0.7,4,1,2019-11-14,13:45:45:182,35,B,right,na,None,4.307,3000,1000,643,607,True,PS,MB,NB,1500,10,4000,1000,2000,300,500
0.7,4,1,2019-11-14,13:45:46:131,35,B,left,na,None,5.256,3000,1000,414,461,True,PS,LM,R1,1500,10,4000,1000,2000,300,500
0.7,4,1,2019-11-14,13:45:46:391,35,B,left,na,None,5.516,3000,1000,392,452,True,PS,LM,R1,1500,10,4000,1000,2000,300,500
0.7,4,1,2019-11-14,13:45:46:596,35,B,left,na,None,5.721,3000,1000,399,441,True,PS,LM,R1,1500,10,4000,1000,2000,300,500
0.7,4,1,2019-11-14,13:45:46:821,35,B,left,na,None,5.946,3000,1000,395,445,True,PS,LM,R1,1500,10,4000,1000,2000,300,500
0.7,4,1,2019-11-14,13:45:47:34,35,B,left,na,True,0.035,3000,1000,398,434,False,PS,LM,R1,1500,10,4000,1000,2000,300,500
0.7,4,1,2019-11-14,13:45:47:269,35,B,left,na,None,0.27,3000,1000,400,428,True,PS,LM,R1,1500,10,4000,1000,2000,300,500
0.7,4,1,2019-11-14,13:45:47:967,35,B,left,na,None,0.968,3000,1000,596,663,True,PS,MB,NB,1500,10,4000,1000,2000,300,500
0.7,4,1,2019-11-14,13:45:48:463,36,B,left,na,None,1.463,3000,1000,613,632,True,PS,MB,NB,1500,10,4000,1000,2000,300,500
0.7,4,1,2019-11-14,13:45:48:864,36,B,left,na,None,1.864,3000,1000,375,422,True,PS,LM,R1,1500,10,4000,1000,2000,300,500
0.7,4,1,2019-11-14,13:45:49:52,36,B,left,na,None,2.052,3000,1000,403,423,True,PS,LM,R1,1500,10,4000,1000,2000,300,500
0.7,4,1,2019-11-14,13:45:49:271,36,B,left,na,None,2.272,3000,1000,406,416,True,PS,LM,R1,1500,10,4000,1000,2000,300,500
0.7,4,1,2019-11-14,13:45:49:508,36,B,left,na,None,2.508,3000,1000,409,435,True,PS,LM,R1,1500,10,4000,1000,2000,300,500
0.7,4,1,2019-11-14,13:45:49:751,36,B,left,na,None,2.751,3000,1000,391,448,True,PS,LM,R1,1500,10,4000,1000,2000,300,500
0.7,4,1,2019-11-14,13:45:49:978,36,B,left,na,None,2.978,3000,1000,393,444,True,PS,LM,R1,1500,10,4000,1000,2000,300,500
0.7,4,1,2019-11-14,13:45:50:221,36,B,left,na,True,0.022,3000,1000,393,441,False,PS,LM,R1,1500,10,4000,1000,2000,300,500
0.7,4,1,2019-11-14,13:45:50:463,36,B,left,na,None,0.265,3000,1000,402,442,True,PS,LM,R1,1500,10,4000,1000,2000,300,500
0.7,4,1,2019-11-14,13:45:51:30,36,B,left,na,None,0.831,3000,1000,607,661,True,PS,MB,NB,1500,10,4000,1000,2000,300,500
0.7,4,1,2019-11-14,13:45:51:523,37,A,left,na,None,1.325,3000,1000,608,645,True,PS,MB,NB,1500,10,4000,1000,2000,300,500
0.7,4,1,2019-11-14,13:45:52:43,37,A,right,na,None,1.845,3000,1000,795,424,True,PS,MM,R2,1500,10,4000,1000,2000,300,500
0.7,4,1,2019-11-14,13:45:52:239,37,A,right,na,None,2.04,3000,1000,789,413,True,PS,MM,R2,1500,10,4000,1000,2000,300,500
0.7,4,1,2019-11-14,13:45:52:443,37,A,right,na,None,2.244,3000,1000,817,441,True,PS,MM,R2,1500,10,4000,1000,2000,300,500
0.7,4,1,2019-11-14,13:45:52:655,37,A,right,na,None,2.456,3000,1000,788,401,True,PS,MM,R2,1500,10,4000,1000,2000,300,500
0.7,4,1,2019-11-14,13:45:52:859,37,A,right,na,None,2.66,3000,1000,798,410,True,PS,MM,R2,1500,10,4000,1000,2000,300,500
0.7,4,1,2019-11-14,13:45:53:63,37,A,right,na,None,2.865,3000,1000,824,407,True,PS,MM,R2,1500,10,4000,1000,2000,300,500
0.7,4,1,2019-11-14,13:45:53:266,37,A,right,na,None,3.067,3000,1000,825,418,True,PS,MM,R2,1500,10,4000,1000,2000,300,500
0.7,4,1,2019-11-14,13:45:53:472,37,A,right,na,True,0.198,3000,1000,820,417,False,PS,MM,R2,1500,10,4000,1000,2000,300,500
0.7,4,1,2019-11-14,13:45:53:658,37,A,right,na,None,0.383,3000,1000,809,412,True,PS,MM,R2,1500,10,4000,1000,2000,300,500
0.7,4,1,2019-11-14,13:45:54:11,37,A,right,na,None,0.736,3000,1000,563,615,True,PS,MB,NB,1500,10,4000,1000,2000,300,500
0.7,4,1,2019-11-14,13:45:54:184,37,A,right,na,None,0.909,3000,1000,587,621,True,PS,MB,NB,1500,10,4000,1000,2000,300,500
0.7,4,1,2019-11-14,13:45:54:387,37,A,right,na,None,1.113,3000,1000,571,622,True,PS,MB,NB,1500,10,4000,1000,2000,300,500
0.7,4,1,2019-11-14,13:45:54:797,38,A,right,na,None,1.522,3000,1000,584,616,True,PS,MB,NB,1500,10,4000,1000,2000,300,500
0.7,4,1,2019-11-14,13:45:55:355,38,A,right,na,None,2.08,3000,1000,883,488,True,PS,RB,None,1500,10,4000,1000,2000,300,500
0.7,4,1,2019-11-14,13:45:55:504,38,A,right,na,None,2.229,3000,1000,855,455,True,PS,RM,R2,1500,10,4000,1000,2000,300,500
0.7,4,1,2019-11-14,13:45:55:684,38,A,right,na,None,2.41,3000,1000,821,427,True,PS,MM,R2,1500,10,4000,1000,2000,300,500
0.7,4,1,2019-11-14,13:45:55:880,38,A,right,na,None,2.605,3000,1000,819,431,True,PS,MM,R2,1500,10,4000,1000,2000,300,500
0.7,4,1,2019-11-14,13:45:56:61,38,A,right,na,None,2.787,3000,1000,806,415,True,PS,MM,R2,1500,10,4000,1000,2000,300,500
0.7,4,1,2019-11-14,13:45:56:257,38,A,right,na,None,2.983,3000,1000,817,431,True,PS,MM,R2,1500,10,4000,1000,2000,300,500
0.7,4,1,2019-11-14,13:45:56:430,38,A,right,na,None,3.156,3000,1000,788,404,True,PS,MM,R2,1500,10,4000,1000,2000,300,500
0.75,4,1,2019-11-14,13:45:56:598,38,A,right,na,True,0.002,3000,1000,806,410,False,PS,MM,R2,1500,10,4000,1000,2000,300,500
0.75,4,1,2019-11-14,13:45:56:773,38,A,right,na,None,0.178,3000,1000,812,419,True,PS,MM,R2,1500,10,4000,1000,2000,300,500
0.75,4,1,2019-11-14,13:45:56:931,38,A,right,na,None,0.335,3000,1000,762,379,True,PS,MM,R2,1500,10,4000,1000,2000,300,500
0.75,4,1,2019-11-14,13:45:58:736,39,B,right,na,None,2.141,3000,1000,631,645,True,PS,MB,NB,1500,10,4000,1000,2000,300,500
0.75,4,1,2019-11-14,13:45:59:137,39,B,right,na,None,2.541,3000,1000,915,377,True,PS,RM,R2,1500,10,4000,1000,2000,300,500
0.75,4,1,2019-11-14,13:45:59:545,39,B,right,na,None,2.949,3000,1000,786,384,True,PS,MM,R2,1500,10,4000,1000,2000,300,500
0.75,4,1,2019-11-14,13:45:59:750,39,B,left,na,None,3.154,3000,1000,501,431,True,PS,MM,R1,1500,10,4000,1000,2000,300,500
0.75,4,1,2019-11-14,13:46:00:9,39,B,left,na,None,3.413,3000,1000,439,412,True,PS,MM,R1,1500,10,4000,1000,2000,300,500
0.75,4,1,2019-11-14,13:46:00:235,39,B,left,na,None,3.639,3000,1000,412,442,True,PS,LM,R1,1500,10,4000,1000,2000,300,500
0.75,4,1,2019-11-14,13:46:00:456,39,B,left,na,None,3.86,3000,1000,414,459,True,PS,LM,R1,1500,10,4000,1000,2000,300,500
0.75,4,1,2019-11-14,13:46:00:653,39,B,left,na,True,0.083,3000,1000,424,461,False,PS,LM,R1,1500,10,4000,1000,2000,300,500
0.75,4,1,2019-11-14,13:46:00:871,39,B,left,na,None,0.301,3000,1000,439,462,True,PS,MM,R1,1500,10,4000,1000,2000,300,500
0.75,4,1,2019-11-14,13:46:01:271,39,B,left,na,None,0.701,3000,1000,610,659,True,PS,MB,NB,1500,10,4000,1000,2000,300,500
0.75,4,1,2019-11-14,13:46:01:483,39,B,left,na,None,0.913,3000,1000,621,673,True,PS,MB,NB,1500,10,4000,1000,2000,300,500
0.75,4,1,2019-11-14,13:46:01:923,40,AB,left,na,None,1.353,3000,1000,611,657,True,PS,MB,NB,1500,10,4000,1000,2000,300,500
0.75,4,1,2019-11-14,13:46:02:497,40,AB,right,na,None,1.927,3000,1000,841,456,True,PS,MM,R2,1500,10,4000,1000,2000,300,500
0.75,4,1,2019-11-14,13:46:02:685,40,AB,right,na,None,2.115,3000,1000,836,466,True,PS,MM,R2,1500,10,4000,1000,2000,300,500
0.75,4,1,2019-11-14,13:46:02:889,40,AB,right,na,None,2.319,3000,1000,839,496,True,PS,MB,None,1500,10,4000,1000,2000,300,500
0.75,4,1,2019-11-14,13:46:03:84,40,AB,right,na,None,2.514,3000,1000,805,439,True,PS,MM,R2,1500,10,4000,1000,2000,300,500
0.75,4,1,2019-11-14,13:46:03:313,40,AB,right,na,None,2.743,3000,1000,821,458,True,PS,MM,R2,1500,10,4000,1000,2000,300,500
0.75,4,1,2019-11-14,13:46:03:533,40,AB,right,na,None,2.963,3000,1000,816,461,True,PS,MM,R2,1500,10,4000,1000,2000,300,500
0.75,4,1,2019-11-14,13:46:03:744,40,AB,right,na,None,3.174,3000,1000,807,455,True,PS,MM,R2,1500,10,4000,1000,2000,300,500
0.75,4,1,2019-11-14,13:46:03:941,40,AB,right,na,None,3.371,3000,1000,818,461,True,PS,MM,R2,1500,10,4000,1000,2000,300,500
0.75,4,1,2019-11-14,13:46:04:152,40,AB,right,na,None,3.582,3000,1000,820,479,True,PS,MM,R2,1500,10,4000,1000,2000,300,500
0.75,4,1,2019-11-14,13:46:04:364,40,AB,right,na,None,3.794,3000,1000,815,499,True,PS,MB,None,1500,10,4000,1000,2000,300,500
0.75,4,1,2019-11-14,13:46:04:576,40,AB,right,na,None,4.006,3000,1000,807,473,True,PS,MM,R2,1500,10,4000,1000,2000,300,500
0.75,4,1,2019-11-14,13:46:04:780,40,AB,right,na,None,4.21,3000,1000,809,471,True,PS,MM,R2,1500,10,4000,1000,2000,300,500
0.75,4,1,2019-11-14,13:46:04:977,40,AB,right,na,None,4.407,3000,1000,813,476,True,PS,MM,R2,1500,10,4000,1000,2000,300,500
0.75,4,1,2019-11-14,13:46:05:187,40,AB,right,na,None,4.617,3000,1000,815,474,True,PS,MM,R2,1500,10,4000,1000,2000,300,500
0.75,4,1,2019-11-14,13:46:05:385,40,AB,right,na,None,4.815,3000,1000,820,479,True,PS,MM,R2,1500,10,4000,1000,2000,300,500
0.75,4,1,2019-11-14,13:46:05:597,40,AB,right,na,None,5.026,3000,1000,812,463,True,PS,MM,R2,1500,10,4000,1000,2000,300,500
0.75,4,1,2019-11-14,13:46:05:792,40,AB,right,na,None,5.222,3000,1000,797,429,True,PS,MM,R2,1500,10,4000,1000,2000,300,500
0.75,4,1,2019-11-14,13:46:06:3,40,AB,right,na,None,5.433,3000,1000,813,419,True,PS,MM,R2,1500,10,4000,1000,2000,300,500
0.75,4,1,2019-11-14,13:46:06:192,40,AB,right,na,None,5.622,3000,1000,811,422,True,PS,MM,R2,1500,10,4000,1000,2000,300,500
0.75,4,1,2019-11-14,13:46:06:365,40,AB,right,na,None,5.795,3000,1000,814,435,True,PS,MM,R2,1500,10,4000,1000,2000,300,500
0.75,4,1,2019-11-14,13:46:06:546,40,AB,right,na,None,5.976,3000,1000,800,437,True,PS,MM,R2,1500,10,4000,1000,2000,300,500
0.75,4,1,2019-11-14,13:46:06:766,40,AB,right,na,None,6.196,3000,1000,550,395,True,PS,MM,None,1500,10,4000,1000,2000,300,500
0.75,4,1,2019-11-14,13:46:06:931,40,AB,left,na,None,6.361,3000,1000,519,408,True,PS,MM,R1,1500,10,4000,1000,2000,300,500
0.75,4,1,2019-11-14,13:46:07:128,40,AB,left,na,None,6.557,3000,1000,446,373,True,PS,MM,R1,1500,10,4000,1000,2000,300,500
0.75,4,1,2019-11-14,13:46:07:315,40,AB,left,na,None,6.745,3000,1000,420,393,True,PS,LM,R1,1500,10,4000,1000,2000,300,500
0.75,4,1,2019-11-14,13:46:07:497,40,AB,left,na,None,6.926,3000,1000,415,404,True,PS,LM,R1,1500,10,4000,1000,2000,300,500
0.75,4,1,2019-11-14,13:46:07:677,40,AB,left,na,None,7.106,3000,1000,385,389,True,PS,LM,R1,1500,10,4000,1000,2000,300,500
0.75,4,1,2019-11-14,13:46:07:841,40,AB,left,na,None,7.271,3000,1000,393,395,True,PS,LM,R1,1500,10,4000,1000,2000,300,500
0.75,4,1,2019-11-14,13:46:07:998,40,AB,left,na,None,7.428,3000,1000,385,397,True,PS,LM,R1,1500,10,4000,1000,2000,300,500
0.75,4,1,2019-11-14,13:46:08:146,40,AB,left,na,None,7.576,3000,1000,386,392,True,PS,LM,R1,1500,10,4000,1000,2000,300,500
0.75,4,1,2019-11-14,13:46:08:539,40,AB,left,na,None,0.048,3000,1000,388,388,False,PS,LM,R1,1500,10,4000,1000,2000,300,500
0.75,4,1,2019-11-14,13:46:08:744,40,AB,left,na,None,0.253,3000,1000,432,404,True,PS,MM,R1,1500,10,4000,1000,2000,300,500
0.75,4,1,2019-11-14,13:46:09:552,41,B,left,na,None,1.061,3000,1000,627,649,True,PS,MB,NB,1500,10,4000,1000,2000,300,500
0.75,4,1,2019-11-14,13:46:09:756,41,B,left,na,None,1.265,3000,1000,614,614,True,PS,MB,NB,1500,10,4000,1000,2000,300,500
0.75,4,1,2019-11-14,13:46:10:85,41,B,left,na,None,1.594,3000,1000,334,355,True,PS,LM,R1,1500,10,4000,1000,2000,300,500
0.75,4,1,2019-11-14,13:46:10:273,41,B,left,na,None,1.782,3000,1000,394,379,True,PS,LM,R1,1500,10,4000,1000,2000,300,500
0.75,4,1,2019-11-14,13:46:10:453,41,B,left,na,None,1.963,3000,1000,413,391,True,PS,LM,R1,1500,10,4000,1000,2000,300,500
0.75,4,1,2019-11-14,13:46:10:619,41,B,left,na,None,2.128,3000,1000,420,404,True,PS,LM,R1,1500,10,4000,1000,2000,300,500
0.75,4,1,2019-11-14,13:46:10:823,41,B,left,na,None,2.332,3000,1000,438,419,True,PS,MM,R1,1500,10,4000,1000,2000,300,500
0.75,4,1,2019-11-14,13:46:11:11,41,B,left,na,None,2.52,3000,1000,434,416,True,PS,MM,R1,1500,10,4000,1000,2000,300,500
0.75,4,1,2019-11-14,13:46:11:200,41,B,left,na,None,2.709,3000,1000,437,425,True,PS,MM,R1,1500,10,4000,1000,2000,300,500
0.75,4,1,2019-11-14,13:46:11:380,41,B,left,na,True,0.036,3000,1000,430,425,False,PS,MM,R1,1500,10,4000,1000,2000,300,500
0.75,4,1,2019-11-14,13:46:11:560,41,B,left,na,None,0.215,3000,1000,435,430,True,PS,MM,R1,1500,10,4000,1000,2000,300,500
0.75,4,1,2019-11-14,13:46:11:740,41,B,left,na,None,0.396,3000,1000,460,451,True,PS,MM,R1,1500,10,4000,1000,2000,300,500
0.75,4,1,2019-11-14,13:46:11:929,41,B,left,na,None,0.584,3000,1000,635,612,True,PS,MB,NB,1500,10,4000,1000,2000,300,500
0.75,4,1,2019-11-14,13:46:12:134,41,B,left,na,None,0.79,3000,1000,611,630,True,PS,MB,NB,1500,10,4000,1000,2000,300,500
0.75,4,1,2019-11-14,13:46:12:313,41,B,left,na,None,0.968,3000,1000,609,640,True,PS,MB,NB,1500,10,4000,1000,2000,300,500
0.75,4,1,2019-11-14,13:46:12:666,42,A,left,na,None,1.321,3000,1000,609,622,True,PS,MB,NB,1500,10,4000,1000,2000,300,500
0.75,4,1,2019-11-14,13:46:12:847,42,A,left,na,None,1.502,3000,1000,605,607,True,PS,MB,NB,1500,10,4000,1000,2000,300,500
0.75,4,1,2019-11-14,13:46:13:51,42,A,left,na,None,1.707,3000,1000,460,456,True,PS,MM,R1,1500,10,4000,1000,2000,300,500
0.75,4,1,2019-11-14,13:46:13:255,42,A,left,na,None,1.911,3000,1000,347,378,True,PS,LM,R1,1500,10,4000,1000,2000,300,500
0.75,4,1,2019-11-14,13:46:13:436,42,A,left,na,None,2.092,3000,1000,407,402,True,PS,LM,R1,1500,10,4000,1000,2000,300,500
0.75,4,1,2019-11-14,13:46:13:624,42,A,left,na,None,2.28,3000,1000,479,441,True,PS,MM,R1,1500,10,4000,1000,2000,300,500
0.75,4,1,2019-11-14,13:46:13:813,42,A,left,na,None,2.469,3000,1000,410,415,True,PS,LM,R1,1500,10,4000,1000,2000,300,500
0.75,4,1,2019-11-14,13:46:14:1,42,A,left,na,None,2.657,3000,1000,460,429,True,PS,MM,R1,1500,10,4000,1000,2000,300,500
0.75,4,1,2019-11-14,13:46:14:198,42,A,left,na,None,2.854,3000,1000,431,419,True,PS,MM,R1,1500,10,4000,1000,2000,300,500
0.75,4,1,2019-11-14,13:46:14:385,42,A,left,na,None,3.041,3000,1000,462,436,True,PS,MM,R1,1500,10,4000,1000,2000,300,500
0.7,4,1,2019-11-14,13:46:14:577,42,A,left,na,False,0.08,3000,1000,431,431,False,PS,MM,R1,1500,10,4000,1000,2000,300,500
0.7,4,1,2019-11-14,13:46:14:754,42,A,left,na,None,0.257,3000,1000,413,432,True,PS,LM,R1,1500,10,4000,1000,2000,300,500
0.7,4,1,2019-11-14,13:46:14:982,42,A,left,na,None,0.485,3000,1000,704,656,True,PS,MB,NB,1500,10,4000,1000,2000,300,500
0.7,4,1,2019-11-14,13:46:15:186,42,A,left,na,None,0.689,3000,1000,626,593,True,PS,MB,NB,1500,10,4000,1000,2000,300,500
0.7,4,1,2019-11-14,13:46:15:350,42,A,left,na,None,0.853,3000,1000,624,605,True,PS,MB,NB,1500,10,4000,1000,2000,300,500
0.7,4,1,2019-11-14,13:46:15:531,42,A,left,na,None,1.034,3000,1000,621,603,True,PS,MB,NB,1500,10,4000,1000,2000,300,500
0.7,4,1,2019-11-14,13:46:15:711,42,A,left,na,None,1.214,3000,1000,612,600,True,PS,MB,NB,1500,10,4000,1000,2000,300,500
0.7,4,1,2019-11-14,13:46:15:884,42,A,left,na,None,1.387,3000,1000,607,603,True,PS,MB,NB,1500,10,4000,1000,2000,300,500
0.7,4,1,2019-11-14,13:46:16:56,42,A,left,na,None,1.56,3000,1000,605,593,True,PS,MB,NB,1500,10,4000,1000,2000,300,500
0.7,4,1,2019-11-14,13:46:16:230,42,A,left,na,None,1.734,3000,1000,604,584,True,PS,MB,NB,1500,10,4000,1000,2000,300,500
0.7,4,1,2019-11-14,13:46:16:410,42,A,left,na,None,1.914,3000,1000,605,565,True,PS,MB,NB,1500,10,4000,1000,2000,300,500
0.7,4,1,2019-11-14,13:46:16:584,42,A,left,na,None,2.087,3000,1000,606,573,True,PS,MB,NB,1500,10,4000,1000,2000,300,500
0.7,4,1,2019-11-14,13:46:16:772,42,A,left,na,None,2.275,3000,1000,607,571,True,PS,MB,NB,1500,10,4000,1000,2000,300,500
0.7,4,1,2019-11-14,13:46:16:960,42,A,left,na,None,2.463,3000,1000,608,569,True,PS,MB,NB,1500,10,4000,1000,2000,300,500
0.7,4,1,2019-11-14,13:46:17:134,42,A,left,na,None,2.637,3000,1000,607,571,True,PS,MB,NB,1500,10,4000,1000,2000,300,500
0.7,4,1,2019-11-14,13:46:17:329,42,A,left,na,None,2.832,3000,1000,606,563,True,PS,MB,NB,1500,10,4000,1000,2000,300,500
0.7,4,1,2019-11-14,13:46:17:526,42,A,left,na,None,3.029,3000,1000,606,559,True,PS,MB,NB,1500,10,4000,1000,2000,300,500
0.7,4,1,2019-11-14,13:46:17:893,43,B,left,na,None,3.397,3000,1000,612,567,True,PS,MB,NB,1500,10,4000,1000,2000,300,500
0.7,4,1,2019-11-14,13:46:18:67,43,B,left,na,None,3.571,3000,1000,612,570,True,PS,MB,NB,1500,10,4000,1000,2000,300,500
0.7,4,1,2019-11-14,13:46:18:216,43,B,left,na,None,3.72,3000,1000,607,562,True,PS,MB,NB,1500,10,4000,1000,2000,300,500
0.7,4,1,2019-11-14,13:46:18:404,43,B,left,na,None,3.908,3000,1000,586,538,True,PS,MB,NB,1500,10,4000,1000,2000,300,500
0.7,4,1,2019-11-14,13:46:18:617,43,B,left,na,None,4.12,3000,1000,361,375,True,PS,LM,R1,1500,10,4000,1000,2000,300,500
0.7,4,1,2019-11-14,13:46:18:812,43,B,left,na,None,4.315,3000,1000,396,399,True,PS,LM,R1,1500,10,4000,1000,2000,300,500
0.7,4,1,2019-11-14,13:46:18:993,43,B,left,na,None,4.496,3000,1000,394,405,True,PS,LM,R1,1500,10,4000,1000,2000,300,500
0.7,4,1,2019-11-14,13:46:19:190,43,B,left,na,None,4.693,3000,1000,385,401,True,PS,LM,R1,1500,10,4000,1000,2000,300,500
0.7,4,1,2019-11-14,13:46:19:384,43,B,left,na,None,4.888,3000,1000,387,406,True,PS,LM,R1,1500,10,4000,1000,2000,300,500
0.7,4,1,2019-11-14,13:46:19:588,43,B,left,na,None,5.092,3000,1000,393,412,True,PS,LM,R1,1500,10,4000,1000,2000,300,500
0.75,4,1,2019-11-14,13:46:19:786,43,B,left,na,True,0.076,3000,1000,400,412,False,PS,LM,R1,1500,10,4000,1000,2000,300,500
0.75,4,1,2019-11-14,13:46:20:3,43,B,left,na,None,0.293,3000,1000,384,401,True,PS,LM,R1,1500,10,4000,1000,2000,300,500
0.75,4,1,2019-11-14,13:46:20:200,43,B,left,na,None,0.49,3000,1000,462,443,True,PS,MM,R1,1500,10,4000,1000,2000,300,500
0.75,4,1,2019-11-14,13:46:20:381,43,B,left,na,None,0.671,3000,1000,643,594,True,PS,MB,NB,1500,10,4000,1000,2000,300,500
0.75,4,1,2019-11-14,13:46:20:571,43,B,left,na,None,0.861,3000,1000,630,594,True,PS,MB,NB,1500,10,4000,1000,2000,300,500
0.75,4,1,2019-11-14,13:46:20:734,43,B,left,na,None,1.024,3000,1000,634,597,True,PS,MB,NB,1500,10,4000,1000,2000,300,500
0.75,4,1,2019-11-14,13:46:21:80,44,B,left,na,None,1.37,3000,1000,624,568,True,PS,MB,NB,1500,10,4000,1000,2000,300,500
0.75,4,1,2019-11-14,13:46:21:238,44,B,left,na,None,1.528,3000,1000,624,568,True,PS,MB,NB,1500,10,4000,1000,2000,300,500
0.75,4,1,2019-11-14,13:46:21:432,44,B,left,na,None,1.722,3000,1000,355,362,True,PS,LM,R1,1500,10,4000,1000,2000,300,500
0.75,4,1,2019-11-14,13:46:21:622,44,B,left,na,None,1.912,3000,1000,365,374,True,PS,LM,R1,1500,10,4000,1000,2000,300,500
0.75,4,1,2019-11-14,13:46:21:785,44,B,left,na,None,2.075,3000,1000,353,377,True,PS,LM,R1,1500,10,4000,1000,2000,300,500
0.75,4,1,2019-11-14,13:46:21:935,44,B,left,na,None,2.225,3000,1000,337,380,True,PS,LM,R1,1500,10,4000,1000,2000,300,500
0.75,4,1,2019-11-14,13:46:22:107,44,B,left,na,None,2.397,3000,1000,361,396,True,PS,LM,R1,1500,10,4000,1000,2000,300,500
0.75,4,1,2019-11-14,13:46:22:282,44,B,left,na,None,2.572,3000,1000,357,385,True,PS,LM,R1,1500,10,4000,1000,2000,300,500
0.75,4,1,2019-11-14,13:46:22:453,44,B,left,na,None,2.743,3000,1000,358,388,True,PS,LM,R1,1500,10,4000,1000,2000,300,500
0.75,4,1,2019-11-14,13:46:22:626,44,B,left,na,None,2.916,3000,1000,366,401,True,PS,LM,R1,1500,10,4000,1000,2000,300,500
0.75,4,1,2019-11-14,13:46:22:806,44,B,left,na,None,3.096,3000,1000,357,397,True,PS,LM,R1,1500,10,4000,1000,2000,300,500
0.8,4,1,2019-11-14,13:46:22:965,44,B,left,na,True,0.046,3000,1000,335,390,False,PS,LM,R1,1500,10,4000,1000,2000,300,500
0.8,4,1,2019-11-14,13:46:23:167,44,B,left,na,None,0.248,3000,1000,553,508,True,PS,MB,None,1500,10,4000,1000,2000,300,500
0.8,4,1,2019-11-14,13:46:23:394,44,B,left,na,None,0.475,3000,1000,590,578,True,PS,MB,NB,1500,10,4000,1000,2000,300,500
0.8,4,1,2019-11-14,13:46:23:559,44,B,left,na,None,0.64,3000,1000,605,617,True,PS,MB,NB,1500,10,4000,1000,2000,300,500
0.8,4,1,2019-11-14,13:46:23:716,44,B,left,na,None,0.797,3000,1000,595,601,True,PS,MB,NB,1500,10,4000,1000,2000,300,500
0.8,4,1,2019-11-14,13:46:23:904,44,B,left,na,None,0.985,3000,1000,594,603,True,PS,MB,NB,1500,10,4000,1000,2000,300,500
0.8,4,1,2019-11-14,13:46:24:227,45,A,left,na,None,1.308,3000,1000,585,601,True,PS,MB,NB,1500,10,4000,1000,2000,300,500
0.8,4,1,2019-11-14,13:46:24:550,45,A,right,na,None,1.631,3000,1000,849,376,True,PS,MM,R2,1500,10,4000,1000,2000,300,500
0.8,4,1,2019-11-14,13:46:24:721,45,A,right,na,None,1.803,3000,1000,888,368,True,PS,RM,R2,1500,10,4000,1000,2000,300,500
0.8,4,1,2019-11-14,13:46:24:932,45,A,right,na,None,2.013,3000,1000,905,406,True,PS,RM,R2,1500,10,4000,1000,2000,300,500
0.8,4,1,2019-11-14,13:46:25:113,45,A,right,na,None,2.194,3000,1000,896,425,True,PS,RM,R2,1500,10,4000,1000,2000,300,500
0.8,4,1,2019-11-14,13:46:25:318,45,A,right,na,None,2.399,3000,1000,894,437,True,PS,RM,R2,1500,10,4000,1000,2000,300,500
0.8,4,1,2019-11-14,13:46:25:491,45,A,right,na,None,2.572,3000,1000,885,416,True,PS,RM,R2,1500,10,4000,1000,2000,300,500
0.8,4,1,2019-11-14,13:46:25:655,45,A,right,na,None,2.737,3000,1000,850,383,True,PS,MM,R2,1500,10,4000,1000,2000,300,500
0.8,4,1,2019-11-14,13:46:25:820,45,A,right,na,None,2.902,3000,1000,852,397,True,PS,MM,R2,1500,10,4000,1000,2000,300,500
0.8,4,1,2019-11-14,13:46:26:24,45,A,right,na,None,3.105,3000,1000,862,405,True,PS,RM,R2,1500,10,4000,1000,2000,300,500
0.85,4,1,2019-11-14,13:46:26:174,45,A,right,na,True,0.1,3000,1000,843,393,False,PS,MM,R2,1500,10,4000,1000,2000,300,500
0.85,4,1,2019-11-14,13:46:26:337,45,A,right,na,None,0.263,3000,1000,841,394,True,PS,MM,R2,1500,10,4000,1000,2000,300,500
0.85,4,1,2019-11-14,13:46:26:745,45,A,right,na,None,0.671,3000,1000,673,700,True,PS,MB,None,1500,10,4000,1000,2000,300,500
0.85,4,1,2019-11-14,13:46:26:949,45,A,right,na,None,0.876,3000,1000,647,661,True,PS,MB,NB,1500,10,4000,1000,2000,300,500
0.85,4,1,2019-11-14,13:46:27:114,45,A,right,na,None,1.041,3000,1000,612,629,True,PS,MB,NB,1500,10,4000,1000,2000,300,500
0.85,4,1,2019-11-14,13:46:27:499,46,B,right,na,None,1.426,3000,1000,574,622,True,PS,MB,NB,1500,10,4000,1000,2000,300,500
0.85,4,1,2019-11-14,13:46:28:199,46,B,left,na,None,2.125,3000,1000,441,393,True,PS,MM,R1,1500,10,4000,1000,2000,300,500
0.85,4,1,2019-11-14,13:46:28:356,46,B,left,na,None,2.282,3000,1000,425,396,True,PS,LM,R1,1500,10,4000,1000,2000,300,500
0.85,4,1,2019-11-14,13:46:28:505,46,B,left,na,None,2.431,3000,1000,391,398,True,PS,LM,R1,1500,10,4000,1000,2000,300,500
0.85,4,1,2019-11-14,13:46:28:646,46,B,left,na,None,2.572,3000,1000,386,399,True,PS,LM,R1,1500,10,4000,1000,2000,300,500
0.85,4,1,2019-11-14,13:46:28:803,46,B,left,na,None,2.729,3000,1000,410,407,True,PS,LM,R1,1500,10,4000,1000,2000,300,500
0.85,4,1,2019-11-14,13:46:29:30,46,B,left,na,None,2.956,3000,1000,405,414,True,PS,LM,R1,1500,10,4000,1000,2000,300,500
0.85,4,1,2019-11-14,13:46:29:195,46,B,left,na,None,3.122,3000,1000,408,431,True,PS,LM,R1,1500,10,4000,1000,2000,300,500
0.85,4,1,2019-11-14,13:46:29:375,46,B,left,na,True,0.061,3000,1000,387,434,False,PS,LM,R1,1500,10,4000,1000,2000,300,500
0.85,4,1,2019-11-14,13:46:29:586,46,B,left,na,None,0.272,3000,1000,385,425,True,PS,LM,R1,1500,10,4000,1000,2000,300,500
0.85,4,1,2019-11-14,13:46:29:790,46,B,left,na,None,0.476,3000,1000,440,463,True,PS,MM,R1,1500,10,4000,1000,2000,300,500
0.85,4,1,2019-11-14,13:46:30:25,46,B,left,na,None,0.711,3000,1000,630,700,True,PS,MB,None,1500,10,4000,1000,2000,300,500
0.85,4,1,2019-11-14,13:46:30:230,46,B,left,na,None,0.916,3000,1000,609,628,True,PS,MB,NB,1500,10,4000,1000,2000,300,500
0.85,4,1,2019-11-14,13:46:30:575,47,B,left,na,None,1.262,3000,1000,627,653,True,PS,MB,NB,1500,10,4000,1000,2000,300,500
0.85,4,1,2019-11-14,13:46:30:740,47,B,left,na,None,1.427,3000,1000,611,624,True,PS,MB,NB,1500,10,4000,1000,2000,300,500
0.85,4,1,2019-11-14,13:46:31:682,47,B,left,na,None,2.369,3000,1000,375,406,True,PS,LM,R1,1500,10,4000,1000,2000,300,500
0.85,4,1,2019-11-14,13:46:31:824,47,B,left,na,None,2.51,3000,1000,367,394,True,PS,LM,R1,1500,10,4000,1000,2000,300,500
0.85,4,1,2019-11-14,13:46:32:11,47,B,left,na,None,2.698,3000,1000,416,428,True,PS,LM,R1,1500,10,4000,1000,2000,300,500
0.85,4,1,2019-11-14,13:46:32:186,47,B,left,na,None,2.872,3000,1000,419,427,True,PS,LM,R1,1500,10,4000,1000,2000,300,500
0.85,4,1,2019-11-14,13:46:32:356,47,B,left,na,None,3.043,3000,1000,409,420,True,PS,LM,R1,1500,10,4000,1000,2000,300,500
0.85,4,1,2019-11-14,13:46:32:561,47,B,left,na,True,0.147,3000,1000,407,422,False,PS,LM,R1,1500,10,4000,1000,2000,300,500
0.85,4,1,2019-11-14,13:46:32:741,47,B,left,na,None,0.326,3000,1000,410,420,True,PS,LM,R1,1500,10,4000,1000,2000,300,500
0.85,4,1,2019-11-14,13:46:33:180,47,B,left,na,None,0.766,3000,1000,631,651,True,PS,MB,NB,1500,10,4000,1000,2000,300,500
0.85,4,1,2019-11-14,13:46:33:361,47,B,left,na,None,0.947,3000,1000,615,647,True,PS,MB,NB,1500,10,4000,1000,2000,300,500
0.85,4,1,2019-11-14,13:46:33:557,47,B,left,na,None,1.142,3000,1000,642,656,True,PS,MB,NB,1500,10,4000,1000,2000,300,500
0.85,4,1,2019-11-14,13:46:33:918,48,A,left,na,None,1.504,3000,1000,614,621,True,PS,MB,NB,1500,10,4000,1000,2000,300,500
0.85,4,1,2019-11-14,13:46:34:320,48,A,right,na,None,1.905,3000,1000,887,329,True,PS,RM,R2,1500,10,4000,1000,2000,300,500
0.85,4,1,2019-11-14,13:46:34:524,48,A,right,na,None,2.109,3000,1000,849,348,True,PS,MM,R2,1500,10,4000,1000,2000,300,500
0.85,4,1,2019-11-14,13:46:34:681,48,A,right,na,None,2.266,3000,1000,866,352,True,PS,RM,R2,1500,10,4000,1000,2000,300,500
0.85,4,1,2019-11-14,13:46:34:876,48,A,right,na,None,2.462,3000,1000,892,357,True,PS,RM,R2,1500,10,4000,1000,2000,300,500
0.85,4,1,2019-11-14,13:46:35:40,48,A,right,na,None,2.625,3000,1000,888,352,True,PS,RM,R2,1500,10,4000,1000,2000,300,500
0.85,4,1,2019-11-14,13:46:35:221,48,A,right,na,None,2.807,3000,1000,895,360,True,PS,RM,R2,1500,10,4000,1000,2000,300,500
0.85,4,1,2019-11-14,13:46:35:410,48,A,right,na,None,2.996,3000,1000,893,369,True,PS,RM,R2,1500,10,4000,1000,2000,300,500
0.85,4,1,2019-11-14,13:46:35:583,48,A,right,na,None,3.169,3000,1000,900,369,True,PS,RM,R2,1500,10,4000,1000,2000,300,500
0.85,4,1,2019-11-14,13:46:35:750,48,A,right,na,True,0.002,3000,1000,908,368,False,PS,RM,R2,1500,10,4000,1000,2000,300,500
0.85,4,1,2019-11-14,13:46:35:950,48,A,right,na,None,0.202,3000,1000,893,389,True,PS,RM,R2,1500,10,4000,1000,2000,300,500
0.85,4,1,2019-11-14,13:46:36:249,48,A,right,na,None,0.5,3000,1000,617,615,True,PS,MB,NB,1500,10,4000,1000,2000,300,500
0.85,4,1,2019-11-14,13:46:36:429,48,A,right,na,None,0.681,3000,1000,612,599,True,PS,MB,NB,1500,10,4000,1000,2000,300,500
0.85,4,1,2019-11-14,13:46:36:602,48,A,right,na,None,0.853,3000,1000,625,623,True,PS,MB,NB,1500,10,4000,1000,2000,300,500
0.85,4,1,2019-11-14,13:46:36:947,49,A,right,na,None,1.199,3000,1000,621,615,True,PS,MB,NB,1500,10,4000,1000,2000,300,500
0.85,4,1,2019-11-14,13:46:37:88,49,A,right,na,None,1.34,3000,1000,613,603,True,PS,MB,NB,1500,10,4000,1000,2000,300,500
0.85,4,1,2019-11-14,13:46:37:442,49,A,left,na,None,1.694,3000,1000,351,372,True,PS,LM,R1,1500,10,4000,1000,2000,300,500
0.85,4,1,2019-11-14,13:46:37:631,49,A,left,na,None,1.883,3000,1000,385,386,True,PS,LM,R1,1500,10,4000,1000,2000,300,500
0.85,4,1,2019-11-14,13:46:37:820,49,A,left,na,None,2.071,3000,1000,372,392,True,PS,LM,R1,1500,10,4000,1000,2000,300,500
0.85,4,1,2019-11-14,13:46:38:14,49,A,left,na,None,2.266,3000,1000,381,391,True,PS,LM,R1,1500,10,4000,1000,2000,300,500
0.85,4,1,2019-11-14,13:46:38:227,49,A,left,na,None,2.479,3000,1000,390,400,True,PS,LM,R1,1500,10,4000,1000,2000,300,500
0.85,4,1,2019-11-14,13:46:38:416,49,A,left,na,None,2.667,3000,1000,395,403,True,PS,LM,R1,1500,10,4000,1000,2000,300,500
0.85,4,1,2019-11-14,13:46:38:597,49,A,left,na,None,2.848,3000,1000,391,410,True,PS,LM,R1,1500,10,4000,1000,2000,300,500
0.85,4,1,2019-11-14,13:46:38:777,49,A,left,na,None,3.029,3000,1000,349,399,True,PS,LM,R1,1500,10,4000,1000,2000,300,500
0.8,4,1,2019-11-14,13:46:38:949,49,A,left,na,False,0.165,3000,1000,354,401,False,PS,LM,R1,1500,10,4000,1000,2000,300,500
0.8,4,1,2019-11-14,13:46:39:121,49,A,left,na,None,0.337,3000,1000,357,397,True,PS,LM,R1,1500,10,4000,1000,2000,300,500
0.8,4,1,2019-11-14,13:46:43:16,50,aB,left,na,None,4.232,3000,1000,632,615,True,PS,MB,NB,1500,10,4000,1000,2000,300,500
0.8,4,1,2019-11-14,13:46:43:157,50,aB,left,na,None,4.373,3000,1000,623,597,True,PS,MB,NB,1500,10,4000,1000,2000,300,500
0.8,4,1,2019-11-14,13:46:43:438,50,aB,left,na,None,4.654,3000,1000,361,387,True,PS,LM,R1,1500,10,4000,1000,2000,300,500
0.8,4,1,2019-11-14,13:46:44:599,50,aB,left,na,None,5.815,3000,1000,412,422,True,PS,LM,R1,1500,10,4000,1000,2000,300,500
0.8,4,1,2019-11-14,13:46:46:170,50,aB,right,na,None,7.386,3000,1000,872,372,True,PS,RM,R2,1500,10,4000,1000,2000,300,500
0.8,4,1,2019-11-14,13:46:46:616,50,aB,left,na,None,0.23,3000,1000,403,413,False,PS,LM,R1,1500,10,4000,1000,2000,300,500
0.8,4,1,2019-11-14,13:46:46:782,50,aB,left,na,None,0.396,3000,1000,401,404,True,PS,LM,R1,1500,10,4000,1000,2000,300,500
0.8,4,1,2019-11-14,13:46:47:456,51,A,left,na,None,1.069,3000,1000,627,618,True,PS,MB,NB,1500,10,4000,1000,2000,300,500
0.8,4,1,2019-11-14,13:46:47:873,51,A,left,na,None,1.487,3000,1000,377,402,True,PS,LM,R1,1500,10,4000,1000,2000,300,500
0.8,4,1,2019-11-14,13:46:48:61,51,A,left,na,None,1.675,3000,1000,438,430,True,PS,MM,R1,1500,10,4000,1000,2000,300,500
0.8,4,1,2019-11-14,13:46:48:242,51,A,left,na,None,1.856,3000,1000,433,430,True,PS,MM,R1,1500,10,4000,1000,2000,300,500
0.8,4,1,2019-11-14,13:46:48:422,51,A,left,na,None,2.035,3000,1000,419,426,True,PS,LM,R1,1500,10,4000,1000,2000,300,500
0.8,4,1,2019-11-14,13:46:48:602,51,A,left,na,None,2.216,3000,1000,467,445,True,PS,MM,R1,1500,10,4000,1000,2000,300,500
0.8,4,1,2019-11-14,13:46:48:775,51,A,left,na,None,2.389,3000,1000,404,422,True,PS,LM,R1,1500,10,4000,1000,2000,300,500
0.8,4,1,2019-11-14,13:46:48:956,51,A,left,na,None,2.569,3000,1000,512,473,True,PS,MM,R1,1500,10,4000,1000,2000,300,500
0.8,4,1,2019-11-14,13:46:49:128,51,A,left,na,None,2.741,3000,1000,392,419,True,PS,LM,R1,1500,10,4000,1000,2000,300,500
0.8,4,1,2019-11-14,13:46:49:300,51,A,left,na,False,0.023,3000,1000,498,463,False,PS,MM,R1,1500,10,4000,1000,2000,300,500
0.8,4,1,2019-11-14,13:46:49:457,51,A,left,na,None,0.18,3000,1000,431,435,True,PS,MM,R1,1500,10,4000,1000,2000,300,500
0.8,4,1,2019-11-14,13:46:49:637,51,A,left,na,None,0.36,3000,1000,459,449,True,PS,MM,R1,1500,10,4000,1000,2000,300,500
0.8,4,1,2019-11-14,13:46:49:818,51,A,left,na,None,0.541,3000,1000,655,623,True,PS,MB,NB,1500,10,4000,1000,2000,300,500
0.8,4,1,2019-11-14,13:46:50:6,51,A,left,na,None,0.728,3000,1000,615,586,True,PS,MB,NB,1500,10,4000,1000,2000,300,500
0.8,4,1,2019-11-14,13:46:50:171,51,A,left,na,None,0.894,3000,1000,619,597,True,PS,MB,NB,1500,10,4000,1000,2000,300,500
0.8,4,1,2019-11-14,13:46:50:344,51,A,left,na,None,1.067,3000,1000,621,583,True,PS,MB,NB,1500,10,4000,1000,2000,300,500
0.8,4,1,2019-11-14,13:46:50:509,51,A,left,na,None,1.232,3000,1000,620,596,True,PS,MB,NB,1500,10,4000,1000,2000,300,500
0.8,4,1,2019-11-14,13:46:50:682,51,A,left,na,None,1.404,3000,1000,619,599,True,PS,MB,NB,1500,10,4000,1000,2000,300,500
0.8,4,1,2019-11-14,13:46:50:846,51,A,left,na,None,1.569,3000,1000,637,612,True,PS,MB,NB,1500,10,4000,1000,2000,300,500
0.8,4,1,2019-11-14,13:46:51:3,51,A,left,na,None,1.726,3000,1000,625,595,True,PS,MB,NB,1500,10,4000,1000,2000,300,500
0.8,4,1,2019-11-14,13:46:51:191,51,A,left,na,None,1.914,3000,1000,632,595,True,PS,MB,NB,1500,10,4000,1000,2000,300,500
0.8,4,1,2019-11-14,13:46:51:358,51,A,left,na,None,2.081,3000,1000,637,607,True,PS,MB,NB,1500,10,4000,1000,2000,300,500
0.8,4,1,2019-11-14,13:46:51:531,51,A,left,na,None,2.253,3000,1000,641,623,True,PS,MB,NB,1500,10,4000,1000,2000,300,500
0.8,4,1,2019-11-14,13:46:51:696,51,A,left,na,None,2.418,3000,1000,635,613,True,PS,MB,NB,1500,10,4000,1000,2000,300,500
0.8,4,1,2019-11-14,13:46:51:860,51,A,left,na,None,2.582,3000,1000,633,617,True,PS,MB,NB,1500,10,4000,1000,2000,300,500
0.8,4,1,2019-11-14,13:46:52:24,51,A,left,na,None,2.746,3000,1000,636,611,True,PS,MB,NB,1500,10,4000,1000,2000,300,500
0.8,4,1,2019-11-14,13:46:52:181,51,A,left,na,None,2.904,3000,1000,635,613,True,PS,MB,NB,1500,10,4000,1000,2000,300,500
0.8,4,1,2019-11-14,13:46:52:518,52,A,left,na,None,3.241,3000,1000,625,602,True,PS,MB,NB,1500,10,4000,1000,2000,300,500
0.8,4,1,2019-11-14,13:46:52:668,52,A,left,na,None,3.39,3000,1000,604,574,True,PS,MB,NB,1500,10,4000,1000,2000,300,500
0.8,4,1,2019-11-14,13:46:52:887,52,A,left,na,None,3.609,3000,1000,416,411,True,PS,LM,R1,1500,10,4000,1000,2000,300,500
0.8,4,1,2019-11-14,13:46:53:68,52,A,left,na,None,3.791,3000,1000,434,420,True,PS,MM,R1,1500,10,4000,1000,2000,300,500
0.8,4,1,2019-11-14,13:46:53:234,52,A,left,na,None,3.956,3000,1000,431,420,True,PS,MM,R1,1500,10,4000,1000,2000,300,500
0.8,4,1,2019-11-14,13:46:53:397,52,A,left,na,None,4.12,3000,1000,427,422,True,PS,MM,R1,1500,10,4000,1000,2000,300,500
0.8,4,1,2019-11-14,13:46:53:577,52,A,left,na,None,4.3,3000,1000,412,419,True,PS,LM,R1,1500,10,4000,1000,2000,300,500
0.8,4,1,2019-11-14,13:46:53:742,52,A,left,na,None,4.465,3000,1000,414,421,True,PS,LM,R1,1500,10,4000,1000,2000,300,500
0.8,4,1,2019-11-14,13:46:53:923,52,A,left,na,None,4.646,3000,1000,439,442,True,PS,MM,R1,1500,10,4000,1000,2000,300,500
0.8,4,1,2019-11-14,13:46:54:121,52,A,left,na,None,4.843,3000,1000,430,431,True,PS,MM,R1,1500,10,4000,1000,2000,300,500
0.8,4,1,2019-11-14,13:46:54:293,52,A,left,na,None,5.015,3000,1000,456,442,True,PS,MM,R1,1500,10,4000,1000,2000,300,500
0.75,4,1,2019-11-14,13:46:54:449,52,A,left,na,False,0.098,3000,1000,446,439,False,PS,MM,R1,1500,10,4000,1000,2000,300,500
0.75,4,1,2019-11-14,13:46:54:621,52,A,left,na,None,0.27,3000,1000,463,451,True,PS,MM,R1,1500,10,4000,1000,2000,300,500
0.75,4,1,2019-11-14,13:46:54:817,52,A,left,na,None,0.466,3000,1000,471,450,True,PS,MM,R1,1500,10,4000,1000,2000,300,500
0.75,4,1,2019-11-14,13:46:55:37,52,A,left,na,None,0.686,3000,1000,634,624,True,PS,MB,NB,1500,10,4000,1000,2000,300,500
0.75,4,1,2019-11-14,13:46:55:209,52,A,left,na,None,0.858,3000,1000,619,614,True,PS,MB,NB,1500,10,4000,1000,2000,300,500
0.75,4,1,2019-11-14,13:46:55:383,52,A,left,na,None,1.032,3000,1000,626,625,True,PS,MB,NB,1500,10,4000,1000,2000,300,500
0.75,4,1,2019-11-14,13:46:55:539,52,A,left,na,None,1.188,3000,1000,629,615,True,PS,MB,NB,1500,10,4000,1000,2000,300,500
0.75,4,1,2019-11-14,13:46:55:697,52,A,left,na,None,1.346,3000,1000,620,591,True,PS,MB,NB,1500,10,4000,1000,2000,300,500
0.75,4,1,2019-11-14,13:46:55:862,52,A,left,na,None,1.511,3000,1000,620,591,True,PS,MB,NB,1500,10,4000,1000,2000,300,500
0.75,4,1,2019-11-14,13:46:56:20,52,A,left,na,None,1.669,3000,1000,615,571,True,PS,MB,NB,1500,10,4000,1000,2000,300,500
0.75,4,1,2019-11-14,13:46:56:134,52,A,left,na,None,1.784,3000,1000,612,558,True,PS,MB,NB,1500,10,4000,1000,2000,300,500
0.75,4,1,2019-11-14,13:46:56:357,52,A,left,na,None,2.006,3000,1000,625,578,True,PS,MB,NB,1500,10,4000,1000,2000,300,500
0.75,4,1,2019-11-14,13:46:56:538,52,A,left,na,None,2.187,3000,1000,630,592,True,PS,MB,NB,1500,10,4000,1000,2000,300,500
0.75,4,1,2019-11-14,13:46:56:734,52,A,left,na,None,2.383,3000,1000,632,600,True,PS,MB,NB,1500,10,4000,1000,2000,300,500
0.75,4,1,2019-11-14,13:46:56:930,52,A,left,na,None,2.579,3000,1000,626,593,True,PS,MB,NB,1500,10,4000,1000,2000,300,500
0.75,4,1,2019-11-14,13:46:57:77,52,A,left,na,None,2.727,3000,1000,610,574,True,PS,MB,NB,1500,10,4000,1000,2000,300,500
0.75,4,1,2019-11-14,13:46:57:281,52,A,left,na,None,2.93,3000,1000,619,582,True,PS,MB,NB,1500,10,4000,1000,2000,300,500
0.75,4,1,2019-11-14,13:46:57:643,53,B,left,na,None,3.292,3000,1000,615,577,True,PS,MB,NB,1500,10,4000,1000,2000,300,500
0.75,4,1,2019-11-14,13:46:57:809,53,B,left,na,None,3.458,3000,1000,617,582,True,PS,MB,NB,1500,10,4000,1000,2000,300,500
0.75,4,1,2019-11-14,13:46:57:958,53,B,left,na,None,3.607,3000,1000,612,581,True,PS,MB,NB,1500,10,4000,1000,2000,300,500
0.75,4,1,2019-11-14,13:46:58:146,53,B,left,na,None,3.795,3000,1000,595,553,True,PS,MB,NB,1500,10,4000,1000,2000,300,500
0.75,4,1,2019-11-14,13:46:58:327,53,B,left,na,None,3.976,3000,1000,614,570,True,PS,MB,NB,1500,10,4000,1000,2000,300,500
0.75,4,1,2019-11-14,13:46:58:492,53,B,left,na,None,4.141,3000,1000,613,579,True,PS,MB,NB,1500,10,4000,1000,2000,300,500
0.75,4,1,2019-11-14,13:46:58:680,53,B,left,na,None,4.329,3000,1000,614,577,True,PS,MB,NB,1500,10,4000,1000,2000,300,500
0.75,4,1,2019-11-14,13:46:58:860,53,B,left,na,None,4.509,3000,1000,620,583,True,PS,MB,NB,1500,10,4000,1000,2000,300,500
0.75,4,1,2019-11-14,13:46:59:31,53,B,left,na,None,4.68,3000,1000,614,577,True,PS,MB,NB,1500,10,4000,1000,2000,300,500
0.75,4,1,2019-11-14,13:46:59:213,53,B,left,na,None,4.862,3000,1000,608,578,True,PS,MB,NB,1500,10,4000,1000,2000,300,500
0.75,4,1,2019-11-14,13:46:59:534,53,B,left,na,None,0.068,3000,1000,610,577,True,PS,MB,NB,1500,10,4000,1000,2000,300,500
0.75,4,1,2019-11-14,13:46:59:754,53,B,left,na,None,0.288,3000,1000,615,579,True,PS,MB,NB,1500,10,4000,1000,2000,300,500
0.75,4,1,2019-11-14,13:47:00:45,53,B,left,na,True,0.579,3000,1000,343,381,False,PS,LM,R1,1500,10,4000,1000,2000,300,500
0.75,4,1,2019-11-14,13:47:00:240,53,B,left,na,None,0.774,3000,1000,435,425,True,PS,MM,R1,1500,10,4000,1000,2000,300,500
0.75,4,1,2019-11-14,13:47:00:491,53,B,left,na,None,1.025,3000,1000,573,524,True,PS,MB,None,1500,10,4000,1000,2000,300,500
0.75,4,1,2019-11-14,13:47:00:679,53,B,left,na,None,1.213,3000,1000,616,583,True,PS,MB,NB,1500,10,4000,1000,2000,300,500
0.75,4,1,2019-11-14,13:47:00:878,53,B,left,na,None,1.412,3000,1000,645,648,True,PS,MB,NB,1500,10,4000,1000,2000,300,500
0.75,4,1,2019-11-14,13:47:01:229,54,B,left,na,None,1.764,3000,1000,635,632,True,PS,MB,NB,1500,10,4000,1000,2000,300,500
0.75,4,1,2019-11-14,13:47:01:417,54,B,left,na,None,1.951,3000,1000,620,593,True,PS,MB,NB,1500,10,4000,1000,2000,300,500
0.75,4,1,2019-11-14,13:47:01:622,54,B,left,na,None,2.157,3000,1000,373,382,True,PS,LM,R1,1500,10,4000,1000,2000,300,500
0.75,4,1,2019-11-14,13:47:01:809,54,B,left,na,None,2.344,3000,1000,425,416,True,PS,LM,R1,1500,10,4000,1000,2000,300,500
0.75,4,1,2019-11-14,13:47:01:992,54,B,left,na,None,2.526,3000,1000,408,410,True,PS,LM,R1,1500,10,4000,1000,2000,300,500
0.75,4,1,2019-11-14,13:47:02:172,54,B,left,na,None,2.706,3000,1000,407,417,True,PS,LM,R1,1500,10,4000,1000,2000,300,500
0.75,4,1,2019-11-14,13:47:02:352,54,B,left,na,None,2.886,3000,1000,409,423,True,PS,LM,R1,1500,10,4000,1000,2000,300,500
0.75,4,1,2019-11-14,13:47:02:525,54,B,left,na,None,3.059,3000,1000,420,431,True,PS,LM,R1,1500,10,4000,1000,2000,300,500
0.75,4,1,2019-11-14,13:47:02:706,54,B,left,na,None,3.24,3000,1000,376,405,True,PS,LM,R1,1500,10,4000,1000,2000,300,500
0.75,4,1,2019-11-14,13:47:02:878,54,B,left,na,None,3.413,3000,1000,385,409,True,PS,LM,R1,1500,10,4000,1000,2000,300,500
