freq_correct,sub_experiment_index,subject,date,timestamp,trial,stimulus,response,is_practice_trial,is_correct,response_time,BLACKOUT_TIME,DELAY_AFTER_REWARD,x,y,undesired_touch,screen_touched,cell_touched,button_touched,SDP_SINGLE_STIMULUS_TIME,SDP_PROBE_TRIAL_INTERVAL,SDP_LONG_A_TIME,SDP_SHORT_A_TIME,SDP_B_TIME,SDP_INTER_STIMULUS_TIME,SDP_DELAY
0,4,5,2019-11-26,13:37:17:406,1,B,left,na,True,0.336,3000,1000,457,442,False,PS,MM,R1,1500,10,4000,1000,2000,300,500
0,4,5,2019-11-26,13:37:21:236,2,B,left,na,True,0.382,3000,1000,425,400,False,PS,LM,R1,1500,10,4000,1000,2000,300,500
0,4,5,2019-11-26,13:37:25:148,3,A,right,na,True,0.494,3000,1000,886,429,False,PS,RM,R2,1500,10,4000,1000,2000,300,500
0,4,5,2019-11-26,13:37:28:869,4,A,right,na,True,0.284,3000,1000,839,451,False,PS,MM,R2,1500,10,4000,1000,2000,300,500
0,4,5,2019-11-26,13:37:32:275,5,A,right,na,None,3.691,3000,1000,911,427,True,PS,RM,R2,1500,10,4000,1000,2000,300,500
0,4,5,2019-11-26,13:37:32:928,5,A,right,na,True,0.59,3000,1000,883,397,False,PS,RM,R2,1500,10,4000,1000,2000,300,500
0,4,5,2019-11-26,13:37:36:391,6,A,right,na,True,0.045,3000,1000,886,374,False,PS,RM,R2,1500,10,4000,1000,2000,300,500
0,4,5,2019-11-26,13:37:40:19,7,B,left,na,True,0.127,3000,1000,405,427,False,PS,LM,R1,1500,10,4000,1000,2000,300,500
0,4,5,2019-11-26,13:37:43:842,8,B,left,na,True,0.291,3000,1000,391,411,False,PS,LM,R1,1500,10,4000,1000,2000,300,500
0,4,5,2019-11-26,13:37:47:808,9,B,left,na,True,0.565,3000,1000,421,448,False,PS,LM,R1,1500,10,4000,1000,2000,300,500
0,4,5,2019-11-26,13:37:58:218,10,AB,right,na,None,2.195,3000,1000,885,367,False,PS,RM,R2,1500,10,4000,1000,2000,300,500
0,4,5,2019-11-26,13:38:02:435,11,A,right,na,True,0.821,3000,1000,883,403,False,PS,RM,R2,1500,10,4000,1000,2000,300,500
0,4,5,2019-11-26,13:38:06:384,12,B,left,na,True,0.448,3000,1000,400,398,False,PS,LM,R1,1500,10,4000,1000,2000,300,500
0,4,5,2019-11-26,13:38:10:499,13,A,right,na,True,0.354,3000,1000,850,407,False,PS,MM,R2,1500,10,4000,1000,2000,300,500
0,4,5,2019-11-26,13:38:14:212,14,A,right,na,True,0.27,3000,1000,824,417,False,PS,MM,R2,1500,10,4000,1000,2000,300,500
0,4,5,2019-11-26,13:38:17:965,15,A,right,na,True,0.264,3000,1000,841,407,False,PS,MM,R2,1500,10,4000,1000,2000,300,500
0,4,5,2019-11-26,13:38:21:505,16,B,left,na,True,0.118,3000,1000,417,477,False,PS,LM,R1,1500,10,4000,1000,2000,300,500
0,4,5,2019-11-26,13:38:25:439,17,B,left,na,True,0.503,3000,1000,400,389,False,PS,LM,R1,1500,10,4000,1000,2000,300,500
0,4,5,2019-11-26,13:38:28:799,18,A,right,na,None,3.862,3000,1000,901,460,True,PS,RM,R2,1500,10,4000,1000,2000,300,500
0,4,5,2019-11-26,13:38:29:450,18,A,right,na,True,0.581,3000,1000,855,427,False,PS,RM,R2,1500,10,4000,1000,2000,300,500
0,4,5,2019-11-26,13:38:33:75,19,A,right,na,True,0.201,3000,1000,861,409,False,PS,RM,R2,1500,10,4000,1000,2000,300,500
0,4,5,2019-11-26,13:38:41:604,20,AB,right,na,None,0.292,3000,1000,845,430,False,PS,MM,R2,1500,10,4000,1000,2000,300,500
0,4,5,2019-11-26,13:38:44:720,21,A,right,na,True,0.298,3000,1000,824,438,False,PS,MM,R2,1500,10,4000,1000,2000,300,500
1.0,4,5,2019-11-26,13:38:48:371,22,A,right,na,True,0.203,3000,1000,823,441,False,PS,MM,R2,1500,10,4000,1000,2000,300,500
1.0,4,5,2019-11-26,13:38:52:78,23,B,left,na,True,0.289,3000,1000,430,414,False,PS,MM,R1,1500,10,4000,1000,2000,300,500
1.0,4,5,2019-11-26,13:38:55:642,24,B,left,na,True,0.218,3000,1000,406,428,False,PS,LM,R1,1500,10,4000,1000,2000,300,500
1.0,4,5,2019-11-26,13:38:57:619,24,B,left,na,None,2.196,3000,1000,744,509,True,PS,MB,None,1500,10,4000,1000,2000,300,500
1.0,4,5,2019-11-26,13:39:00:658,25,B,left,na,True,0.201,3000,1000,426,452,False,PS,LM,R1,1500,10,4000,1000,2000,300,500
1.0,4,5,2019-11-26,13:39:04:128,26,B,left,na,True,0.022,3000,1000,399,432,False,PS,LM,R1,1500,10,4000,1000,2000,300,500
1.0,4,5,2019-11-26,13:39:07:549,27,A,right,na,True,0.021,3000,1000,877,469,False,PS,RM,R2,1500,10,4000,1000,2000,300,500
1.0,4,5,2019-11-26,13:39:11:555,28,B,left,na,True,0.288,3000,1000,435,405,False,PS,MM,R1,1500,10,4000,1000,2000,300,500
1.0,4,5,2019-11-26,13:39:14:925,29,A,right,na,True,0.002,3000,1000,888,442,False,PS,RM,R2,1500,10,4000,1000,2000,300,500
1.0,4,5,2019-11-26,13:39:23:886,30,AB,right,na,None,0.667,3000,1000,871,432,False,PS,RM,R2,1500,10,4000,1000,2000,300,500
1.0,4,5,2019-11-26,13:39:27:154,31,B,left,na,True,0.378,3000,1000,396,432,False,PS,LM,R1,1500,10,4000,1000,2000,300,500
1.0,4,5,2019-11-26,13:39:30:954,32,A,right,na,True,0.348,3000,1000,835,417,False,PS,MM,R2,1500,10,4000,1000,2000,300,500
1.0,4,5,2019-11-26,13:39:34:746,33,A,right,na,True,0.4,3000,1000,853,439,False,PS,MM,R2,1500,10,4000,1000,2000,300,500
1.0,4,5,2019-11-26,13:39:38:513,34,B,left,na,True,0.407,3000,1000,404,433,False,PS,LM,R1,1500,10,4000,1000,2000,300,500
1.0,4,5,2019-11-26,13:39:42:249,35,A,right,na,True,0.318,3000,1000,934,452,False,PS,RM,R2,1500,10,4000,1000,2000,300,500
1.0,4,5,2019-11-26,13:39:45:994,36,B,left,na,True,0.408,3000,1000,465,458,False,PS,MM,R1,1500,10,4000,1000,2000,300,500
1.0,4,5,2019-11-26,13:39:49:951,37,B,left,na,True,0.39,3000,1000,397,421,False,PS,LM,R1,1500,10,4000,1000,2000,300,500
1.0,4,5,2019-11-26,13:39:54:111,38,A,right,na,True,0.743,3000,1000,858,458,False,PS,RM,R2,1500,10,4000,1000,2000,300,500
1.0,4,5,2019-11-26,13:39:57:848,39,B,left,na,True,0.33,3000,1000,457,430,False,PS,MM,R1,1500,10,4000,1000,2000,300,500
1.0,4,5,2019-11-26,13:40:00:893,40,aB,left,na,None,3.375,3000,1000,693,508,True,PS,MB,NB,1500,10,4000,1000,2000,300,500
1.0,4,5,2019-11-26,13:40:03:780,40,aB,right,na,None,0.715,3000,1000,844,432,False,PS,MM,R2,1500,10,4000,1000,2000,300,500
1.0,4,5,2019-11-26,13:40:07:142,41,B,left,na,True,0.406,3000,1000,423,422,False,PS,LM,R1,1500,10,4000,1000,2000,300,500
1.0,4,5,2019-11-26,13:40:10:981,42,A,right,na,True,0.361,3000,1000,859,435,False,PS,RM,R2,1500,10,4000,1000,2000,300,500
1.0,4,5,2019-11-26,13:40:14:954,43,A,right,na,True,0.541,3000,1000,834,368,False,PS,MM,R2,1500,10,4000,1000,2000,300,500
1.0,4,5,2019-11-26,13:40:18:147,44,B,left,na,None,3.734,3000,1000,379,448,True,PS,LM,R1,1500,10,4000,1000,2000,300,500
1.0,4,5,2019-11-26,13:40:18:893,44,B,left,na,True,0.595,3000,1000,447,418,False,PS,MM,R1,1500,10,4000,1000,2000,300,500
1.0,4,5,2019-11-26,13:40:22:770,45,B,left,na,True,0.381,3000,1000,434,439,False,PS,MM,R1,1500,10,4000,1000,2000,300,500
1.0,4,5,2019-11-26,13:40:26:501,46,B,left,na,True,0.338,3000,1000,469,420,False,PS,MM,R1,1500,10,4000,1000,2000,300,500
1.0,4,5,2019-11-26,13:40:29:994,47,A,right,na,True,0.078,3000,1000,889,411,False,PS,RM,R2,1500,10,4000,1000,2000,300,500
1.0,4,5,2019-11-26,13:40:33:752,48,A,right,na,True,0.366,3000,1000,839,456,False,PS,MM,R2,1500,10,4000,1000,2000,300,500
1.0,4,5,2019-11-26,13:40:37:663,49,A,right,na,True,0.551,3000,1000,848,463,False,PS,MM,R2,1500,10,4000,1000,2000,300,500
1.0,4,5,2019-11-26,13:40:43:374,50,aB,right,na,None,0.503,3000,1000,825,353,False,PS,MM,R2,1500,10,4000,1000,2000,300,500
1.0,4,5,2019-11-26,13:40:46:414,51,B,right,na,None,0.462,3000,1000,430,488,True,PS,MB,NB,1500,10,4000,1000,2000,300,500
1.0,4,5,2019-11-26,13:40:46:854,51,B,left,na,True,0.902,3000,1000,422,455,False,PS,LM,R1,1500,10,4000,1000,2000,300,500
1.0,4,5,2019-11-26,13:40:50:660,52,B,left,na,True,0.408,3000,1000,441,372,False,PS,MM,R1,1500,10,4000,1000,2000,300,500
1.0,4,5,2019-11-26,13:40:54:349,53,A,right,na,True,0.319,3000,1000,872,434,False,PS,RM,R2,1500,10,4000,1000,2000,300,500
1.0,4,5,2019-11-26,13:40:58:579,54,A,right,na,True,0.847,3000,1000,853,380,False,PS,MM,R2,1500,10,4000,1000,2000,300,500
1.0,4,5,2019-11-26,13:41:02:498,55,A,right,na,True,0.502,3000,1000,855,443,False,PS,RM,R2,1500,10,4000,1000,2000,300,500
1.0,4,5,2019-11-26,13:41:06:178,56,A,right,na,True,0.345,3000,1000,905,439,False,PS,RM,R2,1500,10,4000,1000,2000,300,500
1.0,4,5,2019-11-26,13:41:09:733,57,A,right,na,True,0.197,3000,1000,843,466,False,PS,MM,R2,1500,10,4000,1000,2000,300,500
1.0,4,5,2019-11-26,13:41:13:38,58,B,left,na,None,3.502,3000,1000,431,432,True,PS,MM,R1,1500,10,4000,1000,2000,300,500
1.0,4,5,2019-11-26,13:41:13:532,58,B,left,na,True,0.414,3000,1000,450,436,False,PS,MM,R1,1500,10,4000,1000,2000,300,500
1.0,4,5,2019-11-26,13:41:17:638,59,B,left,na,True,0.586,3000,1000,468,447,False,PS,MM,R1,1500,10,4000,1000,2000,300,500
1.0,4,5,2019-11-26,13:41:26:247,60,AB,right,na,None,0.425,3000,1000,868,424,False,PS,RM,R2,1500,10,4000,1000,2000,300,500
1.0,4,5,2019-11-26,13:41:28:987,61,B,left,na,True,0.241,3000,1000,381,383,False,PS,LM,R1,1500,10,4000,1000,2000,300,500
1.0,4,5,2019-11-26,13:41:33:85,62,A,right,na,True,0.352,3000,1000,807,423,False,PS,MM,R2,1500,10,4000,1000,2000,300,500
1.0,4,5,2019-11-26,13:41:37:2,63,B,left,na,True,0.492,3000,1000,375,421,False,PS,LM,R1,1500,10,4000,1000,2000,300,500
1.0,4,5,2019-11-26,13:41:40:604,64,B,left,na,True,0.24,3000,1000,390,462,False,PS,LM,R1,1500,10,4000,1000,2000,300,500
1.0,4,5,2019-11-26,13:41:44:412,65,A,right,na,True,0.433,3000,1000,850,400,False,PS,MM,R2,1500,10,4000,1000,2000,300,500
1.0,4,5,2019-11-26,13:41:47:786,66,B,left,na,None,3.808,3000,1000,454,399,True,PS,MM,R1,1500,10,4000,1000,2000,300,500
1.0,4,5,2019-11-26,13:41:48:415,66,B,left,na,True,0.626,3000,1000,447,441,False,PS,MM,R1,1500,10,4000,1000,2000,300,500
1.0,4,5,2019-11-26,13:41:51:616,67,A,right,na,None,3.826,3000,1000,817,395,True,PS,MM,R2,1500,10,4000,1000,2000,300,500
1.0,4,5,2019-11-26,13:41:52:739,67,A,right,na,True,0.917,3000,1000,835,402,False,PS,MM,R2,1500,10,4000,1000,2000,300,500
1.0,4,5,2019-11-26,13:41:56:686,68,B,left,na,True,0.334,3000,1000,418,394,False,PS,LM,R1,1500,10,4000,1000,2000,300,500
1.0,4,5,2019-11-26,13:42:00:93,69,B,left,na,None,3.741,3000,1000,450,433,True,PS,MM,R1,1500,10,4000,1000,2000,300,500
1.0,4,5,2019-11-26,13:42:00:650,69,B,left,na,True,0.542,3000,1000,456,439,False,PS,MM,R1,1500,10,4000,1000,2000,300,500
1.0,4,5,2019-11-26,13:42:03:654,70,aB,right,na,None,3.546,3000,1000,847,417,True,PS,MM,R2,1500,10,4000,1000,2000,300,500
1.0,4,5,2019-11-26,13:42:06:190,70,aB,right,na,None,0.349,3000,1000,890,421,False,PS,RM,R2,1500,10,4000,1000,2000,300,500
1.0,4,5,2019-11-26,13:42:09:653,71,A,right,na,True,0.775,3000,1000,858,425,False,PS,RM,R2,1500,10,4000,1000,2000,300,500
1.0,4,5,2019-11-26,13:42:13:656,72,B,left,na,True,0.336,3000,1000,412,439,False,PS,LM,R1,1500,10,4000,1000,2000,300,500
1.0,4,5,2019-11-26,13:42:17:367,73,A,right,na,True,0.32,3000,1000,850,407,False,PS,MM,R2,1500,10,4000,1000,2000,300,500
1.0,4,5,2019-11-26,13:42:21:50,74,B,left,na,True,0.355,3000,1000,477,414,False,PS,MM,R1,1500,10,4000,1000,2000,300,500
1.0,4,5,2019-11-26,13:42:24:377,75,A,right,na,None,3.682,3000,1000,879,418,True,PS,RM,R2,1500,10,4000,1000,2000,300,500
1.0,4,5,2019-11-26,13:42:25:36,75,A,right,na,True,0.626,3000,1000,835,400,False,PS,MM,R2,1500,10,4000,1000,2000,300,500
1.0,4,5,2019-11-26,13:42:28:543,76,A,right,na,None,4.133,3000,1000,866,383,True,PS,RM,R2,1500,10,4000,1000,2000,300,500
1.0,4,5,2019-11-26,13:42:29:226,76,A,right,na,True,0.588,3000,1000,848,436,False,PS,MM,R2,1500,10,4000,1000,2000,300,500
1.0,4,5,2019-11-26,13:42:32:988,77,A,right,na,True,0.282,3000,1000,876,423,False,PS,RM,R2,1500,10,4000,1000,2000,300,500
1.0,4,5,2019-11-26,13:42:36:716,78,B,left,na,True,0.312,3000,1000,423,366,False,PS,LM,R1,1500,10,4000,1000,2000,300,500
1.0,4,5,2019-11-26,13:42:40:183,79,B,left,na,True,0.084,3000,1000,434,380,False,PS,MM,R1,1500,10,4000,1000,2000,300,500
1.0,4,5,2019-11-26,13:42:45:887,80,aB,right,na,None,0.37,3000,1000,878,418,False,PS,RM,R2,1500,10,4000,1000,2000,300,500
1.0,4,5,2019-11-26,13:42:56:210,80,aB,right,na,None,10.693,3000,1000,778,538,True,PS,MB,None,1500,10,4000,1000,2000,300,500
